%time,field.accel.x,field.accel.y,field.accel.z,field.accel.covariance.x,field.accel.covariance.y,field.accel.covariance.z,field.accel.bias.x,field.accel.bias.y,field.accel.bias.z,field.accel.offset.x,field.accel.offset.y,field.accel.offset.z,field.gyro.x,field.gyro.y,field.gyro.z,field.gyro.covariance.x,field.gyro.covariance.y,field.gyro.covariance.z,field.gyro.bias.x,field.gyro.bias.y,field.gyro.bias.z,field.gyro.offset.x,field.gyro.offset.y,field.gyro.offset.z,field.orientation.x,field.orientation.y,field.orientation.z,field.orientation.w,field.orientation.covariance.roll,field.orientation.covariance.pitch,field.orientation.covariance.yaw,field.orientation.bias.x,field.orientation.bias.y,field.orientation.bias.z,field.orientation.bias.w
248240000000,0.0311140965178,-0.0734682493187,9.79270689238,2.5e-05,2.5e-05,2.5e-05,-0.00028917408938,0.00243100099064,-0.00132817765298,0.0,0.0,0.0,-0.0055657722465,-0.000147194710567,-0.0349129178922,2.5e-05,2.5e-05,2.5e-05,-0.00190201573091,0.00219863892506,0.000515767127799,0.0,0.0,0.0,5.05604300527e-05,0.000139117845846,0.970960885829,-0.239238241675,2.60308204915e-07,2.60308204915e-07,0.0001,-0.000103044334669,-7.05883894554e-05,0.000846639734518,0.9999996338
248260000000,0.156662966457,0.00809567266494,9.79962862245,2.5e-05,2.5e-05,2.5e-05,-0.000290580097084,0.00243155022296,-0.00132710032052,0.0,0.0,0.0,-0.00121777221264,0.0082074668989,-0.0346334306781,2.5e-05,2.5e-05,2.5e-05,-0.00190187702335,0.00219754744389,0.000516458107318,0.0,0.0,0.0,4.81786024533e-05,0.000139849165029,0.971058737411,-0.238840755775,2.60308204915e-07,2.60308204915e-07,0.0001,-0.000103093338764,-7.05814641723e-05,0.000841196916882,0.999999638389
248280000000,-0.195194055996,0.00403087316262,9.80580667785,2.5e-05,2.5e-05,2.5e-05,-0.000290074799103,0.00243298946876,-0.00132192530187,0.0,0.0,0.0,-0.0116909733246,-0.000484948954365,-0.0239110388559,2.5e-05,2.5e-05,2.5e-05,-0.00190228150805,0.00219764279563,0.000516154516498,0.0,0.0,0.0,4.3332760843e-05,0.000139998020794,0.971136626691,-0.238523857973,2.60308204915e-07,2.60308204915e-07,0.0001,-0.000103216022354,-7.05262816962e-05,0.000838084441234,0.999999640993
248300000000,-1.18493941156,-0.0198757687126,9.80843443366,2.5e-05,2.5e-05,2.5e-05,-0.000288788098411,0.00243325167482,-0.00132759240372,0.0,0.0,0.0,-0.00218131491593,0.00278812996357,-0.0183262737,2.5e-05,2.5e-05,2.5e-05,-0.00190248519135,0.00219805887197,0.000516180566217,0.0,0.0,0.0,3.42673387351e-05,0.000137342312783,0.971208207898,-0.238232233073,2.60308204915e-07,2.60308204915e-07,0.0001,-0.000103299918136,-7.04133347778e-05,0.000837887141208,0.999999641158
248320000000,-1.396075761,0.0332296829651,9.79065139366,2.5e-05,2.5e-05,2.5e-05,-0.000287172660274,0.00243620193387,-0.00132656144356,0.0,0.0,0.0,0.00463724236203,0.00813668949561,0.0124362346908,2.5e-05,2.5e-05,2.5e-05,-0.00190174553105,0.00219825695149,0.000516238725999,0.0,0.0,0.0,2.40584546857e-05,0.000141238780867,0.971184054206,-0.238330678529,2.60308204915e-07,2.60308204915e-07,0.0001,-0.000103457700439,-7.0431748249e-05,0.000842534541957,0.999999637236
248340000000,-2.2537612978,-0.0290883360288,9.81975754191,2.5e-05,2.5e-05,2.5e-05,-0.000284851731981,0.00243992182721,-0.00132776573661,0.0,0.0,0.0,-0.00313302045145,0.00432676129714,0.0144613436804,2.5e-05,2.5e-05,2.5e-05,-0.0019020189669,0.00219846292123,0.000517335926708,0.0,0.0,0.0,2.85753999985e-05,0.000136037777059,0.971149517769,-0.238471371058,2.60308204915e-07,2.60308204915e-07,0.0001,-0.00010365996171,-7.04434315013e-05,0.000845360813985,0.999999634829
248360000000,-2.4373178376,0.00603942443474,9.79576152448,2.5e-05,2.5e-05,2.5e-05,-0.000282931618755,0.00243551509692,-0.00132991303297,0.0,0.0,0.0,0.002833829428,-0.00315895514729,-0.0654403550383,2.5e-05,2.5e-05,2.5e-05,-0.00190183860113,0.00219918448491,0.000518815734962,0.0,0.0,0.0,4.37324090255e-05,0.000136544026248,0.97129733919,-0.23786857364,2.60308204915e-07,2.60308204915e-07,0.0001,-0.000103594014381,-7.01215258888e-05,0.000850943425852,0.999999630123
248380000000,-2.16527371979,0.0365591866101,9.79216108275,2.5e-05,2.5e-05,2.5e-05,-0.000282868526604,0.00243150580385,-0.00133066803796,0.0,0.0,0.0,-0.00172867020123,0.00111683840954,-0.115559864585,2.5e-05,2.5e-05,2.5e-05,-0.00190249803621,0.0021981820692,0.000519729668438,0.0,0.0,0.0,4.68401937935e-05,0.000136282885723,0.971578542212,-0.236717374828,2.60308204915e-07,2.60308204915e-07,0.0001,-0.000103579787274,-6.97786049136e-05,0.000851061728353,0.999999630048
248400000000,-1.65779681564,0.0339787049745,9.797244207,2.5e-05,2.5e-05,2.5e-05,-0.00028222811348,0.00243225751546,-0.00132910991207,0.0,0.0,0.0,-0.00551946508336,-0.0048961748575,-0.1024759852,2.5e-05,2.5e-05,2.5e-05,-0.00190342645009,0.00220077280879,0.000519414207775,0.0,0.0,0.0,2.5743539419e-05,0.000135848716405,0.971827542929,-0.235693036994,2.60308204915e-07,2.60308204915e-07,0.0001,-0.000103774684929,-6.95518007197e-05,0.000846765166963,0.999999633691
248420000000,-0.952496765744,0.0400655671632,9.79975040531,2.5e-05,2.5e-05,2.5e-05,-0.000286045750993,0.00243111898307,-0.00132899038046,0.0,0.0,0.0,-0.00738603918604,0.00173482246919,-0.0730758040008,2.5e-05,2.5e-05,2.5e-05,-0.00190340752252,0.00220224389992,0.000522157309069,0.0,0.0,0.0,2.17785593369e-05,0.000136516858357,0.971995344656,-0.235000065652,2.60308204915e-07,2.60308204915e-07,0.0001,-0.000103733168874,-6.95511938055e-05,0.000846169698809,0.999999634199
248440000000,-0.678145374351,-0.151568733494,9.80298629271,2.5e-05,2.5e-05,2.5e-05,-0.000288564324236,0.00243194759045,-0.00132671532282,0.0,0.0,0.0,-0.00776147388903,0.00825476566672,-0.0420393356602,2.5e-05,2.5e-05,2.5e-05,-0.00190267205316,0.00220271682799,0.000524482828017,0.0,0.0,0.0,2.63227472998e-05,0.000136934163884,0.972109145108,-0.23452886934,2.60308204915e-07,2.60308204915e-07,0.0001,-0.00010377985329,-6.95837220617e-05,0.000845670019841,0.999999634615
248460000000,-0.664579241612,0.0464034513912,9.80216827966,2.5e-05,2.5e-05,2.5e-05,-0.000290029370409,0.00243252635565,-0.00132756923874,0.0,0.0,0.0,0.00033152411122,0.00314602403208,-0.0525568856732,2.5e-05,2.5e-05,2.5e-05,-0.00190237550166,0.00220248097966,0.000524003434424,0.0,0.0,0.0,2.68538184714e-05,0.000136953574187,0.972234180903,-0.234009995529,2.60308204915e-07,2.60308204915e-07,0.0001,-0.000103846027523,-6.95534538361e-05,0.000839666658094,0.999999639669
248480000000,-0.0798343142446,0.0188274707557,9.80254512949,2.5e-05,2.5e-05,2.5e-05,-0.000291291902795,0.00243420988381,-0.00132606441191,0.0,0.0,0.0,-0.0112150642921,0.0110235943651,-0.06992360552,2.5e-05,2.5e-05,2.5e-05,-0.00190322893162,0.0022024971696,0.000523597639049,0.0,0.0,0.0,2.82489584258e-05,0.000137214714376,0.972392326135,-0.233351975455,2.60308204915e-07,2.60308204915e-07,0.0001,-0.000103987483927,-6.95090734526e-05,0.000839034547931,0.999999640188
248500000000,0.804676619119,0.0267797683985,9.79496186272,2.5e-05,2.5e-05,2.5e-05,-0.000287259153124,0.00243149483674,-0.0013252983043,0.0,0.0,0.0,-0.00104697821752,0.00915996011736,-0.0741226373829,2.5e-05,2.5e-05,2.5e-05,-0.00190412998453,0.0022031077247,0.000522149604872,0.0,0.0,0.0,3.17496471792e-05,0.000137480154495,0.972569865651,-0.232610912295,2.60308204915e-07,2.60308204915e-07,0.0001,-0.000104062756781,-6.91040388735e-05,0.000838394299872,0.999999640745
248520000000,0.846445862129,-0.0939248526969,9.80732958594,2.5e-05,2.5e-05,2.5e-05,-0.000284254197376,0.00242854524763,-0.00132402355101,0.0,0.0,0.0,-0.0125347326751,0.00117552103674,-0.0449397485438,2.5e-05,2.5e-05,2.5e-05,-0.00190455506398,0.00220327997347,0.000521815765334,0.0,0.0,0.0,5.34968783202e-05,0.0001422203463,0.972681859579,-0.232142148169,2.60308204915e-07,2.60308204915e-07,0.0001,-0.000104065330311,-6.87964756278e-05,0.000837082571785,0.999999641865
248540000000,-0.595935264872,0.178699874759,9.79328381078,2.5e-05,2.5e-05,2.5e-05,-0.000280570959374,0.00242295301758,-0.00132472827733,0.0,0.0,0.0,-0.0104717924906,0.0126764868072,-0.111047434752,2.5e-05,2.5e-05,2.5e-05,-0.00190523059756,0.00220432670412,0.000520096166166,0.0,0.0,0.0,4.15200682925e-05,0.00013845257542,0.972946441715,-0.231030735318,2.60308204915e-07,2.60308204915e-07,0.0001,-0.000104050701551,-6.82641771142e-05,0.000835790405229,0.999999642984
248560000000,0.761388819624,0.0169375311828,9.79273214595,2.5e-05,2.5e-05,2.5e-05,-0.000285385066041,0.00242068402763,-0.0013251728478,0.0,0.0,0.0,-0.00298514133857,0.00254176479714,-0.106911950227,2.5e-05,2.5e-05,2.5e-05,-0.00190540317966,0.00220296963762,0.000519482736415,0.0,0.0,0.0,6.31260003214e-05,0.000146898584817,0.973211106967,-0.229913278675,2.60308204915e-07,2.60308204915e-07,0.0001,-0.000103995842162,-6.81902762324e-05,0.000837538034913,0.999999641532
248580000000,1.31705569251,-0.0237779034271,9.80742628689,2.5e-05,2.5e-05,2.5e-05,-0.000285327163275,0.00241889760611,-0.00132544342268,0.0,0.0,0.0,-0.00445374857875,0.00585324801538,-0.0652395092269,2.5e-05,2.5e-05,2.5e-05,-0.00190626081226,0.00220198292472,0.000519338978769,0.0,0.0,0.0,7.11155475732e-05,0.000148985223838,0.973363781506,-0.229266049815,2.60308204915e-07,2.60308204915e-07,0.0001,-0.000104006173816,-6.80084797248e-05,0.000829825374351,0.999999647974
248600000000,0.512133337801,-0.012903517228,9.80868951864,2.5e-05,2.5e-05,2.5e-05,-0.000285859307746,0.00241840995365,-0.00132613505586,0.0,0.0,0.0,-0.00171008377814,0.00326229444916,-0.0111634527928,2.5e-05,2.5e-05,2.5e-05,-0.00190644131758,0.00220169818937,0.000520018917084,0.0,0.0,0.0,5.71195278773e-05,0.000146339955684,0.973405679736,-0.229088100913,2.60308204915e-07,2.60308204915e-07,0.0001,-0.000103995899953,-6.79854294911e-05,0.000829894332526,0.999999647919
248615000000,-0.0904714304106,0.0365890870578,9.79104273025,2.5e-05,2.5e-05,2.5e-05,-0.000288921701613,0.00242226969611,-0.0013287339255,0.0,0.0,0.0,-0.00416149918807,0.000295841042594,-0.0172416740379,2.5e-05,2.5e-05,2.5e-05,-0.00190653854255,0.00220199516563,0.000518994897493,0.0,0.0,0.0,5.21326972457e-05,0.00014223322791,0.973443288106,-0.228928246167,2.60308204915e-07,2.60308204915e-07,0.0001,-0.000104124172221,-6.81795882528e-05,0.000827102549004,0.999999650205
248640000000,0.412040134103,-0.0668450410512,9.79921413387,2.5e-05,2.5e-05,2.5e-05,-0.000290103124029,0.00242044910038,-0.00132601511239,0.0,0.0,0.0,-0.000999039704019,0.00653348035953,-0.0155909679921,2.5e-05,2.5e-05,2.5e-05,-0.00190670233067,0.00220080643548,0.000519829669485,0.0,0.0,0.0,5.05984898889e-05,0.000142208393667,0.973487096628,-0.228741884919,2.60308204915e-07,2.60308204915e-07,0.0001,-0.000104039892789,-6.81531350698e-05,0.000822300855606,0.999999654176
248660000000,0.504015690205,0.0350026109677,9.79718203798,2.5e-05,2.5e-05,2.5e-05,-0.000288958837579,0.00241930007215,-0.00132466633092,0.0,0.0,0.0,-0.00663878957124,0.00688241077263,-0.00325343145637,2.5e-05,2.5e-05,2.5e-05,-0.00190672976732,0.00220195806984,0.000520472689719,0.0,0.0,0.0,4.85791027327e-05,0.000142698634384,0.973501609307,-0.228680112721,2.60308204915e-07,2.60308204915e-07,0.0001,-0.000104021627548,-6.80624152776e-05,0.000817151459254,0.999999658405
248680000000,0.57416942642,0.0129522610897,9.81186331949,2.5e-05,2.5e-05,2.5e-05,-0.00028789190687,0.00242555027012,-0.00132290351383,0.0,0.0,0.0,0.00438442928323,0.00622879174489,0.0140970869527,2.5e-05,2.5e-05,2.5e-05,-0.00190499802213,0.0022014990785,0.000521297173988,0.0,0.0,0.0,4.48195210052e-05,0.000142880141053,0.973474144494,-0.228797000808,2.60308204915e-07,2.60308204915e-07,0.0001,-0.000104315388821,-6.81803036197e-05,0.000823386653945,0.999999653252
248700000000,0.64497431944,-0.0189690544839,9.79021876356,2.5e-05,2.5e-05,2.5e-05,-0.000287503607859,0.0024241480405,-0.00132548096282,0.0,0.0,0.0,0.00279255278357,0.0120377517642,0.0152983019441,2.5e-05,2.5e-05,2.5e-05,-0.00190491204106,0.00220316349994,0.000520376711292,0.0,0.0,0.0,3.87110491124e-05,0.000140840722708,0.97343055573,-0.228982383246,2.60308204915e-07,2.60308204915e-07,0.0001,-0.00010423403386,-6.81707009797e-05,0.000827901598477,0.999999649533
248720000000,-0.0174841401495,-0.0188701655089,9.7919412682,2.5e-05,2.5e-05,2.5e-05,-0.000287988348197,0.00242083435466,-0.00132530650121,0.0,0.0,0.0,-0.00355450056199,-0.00383457986353,0.0338799250411,2.5e-05,2.5e-05,2.5e-05,-0.00190444184313,0.00220176692124,0.000519468966635,0.0,0.0,0.0,4.59551222604e-05,0.000144019751153,0.973369212611,-0.229243000085,2.60308204915e-07,2.60308204915e-07,0.0001,-0.000104035148788,-6.81734660902e-05,0.000818335856959,0.999999657428
248740000000,0.91079342689,0.127742505986,9.79077590596,2.5e-05,2.5e-05,2.5e-05,-0.000285811756131,0.00241873405328,-0.0013240714781,0.0,0.0,0.0,0.00680590259947,-0.00458076879817,0.0496209402131,2.5e-05,2.5e-05,2.5e-05,-0.00190320897011,0.00220341499635,0.000519292444963,0.0,0.0,0.0,7.26512655451e-05,0.000154309023623,0.973283184843,-0.22960795503,2.60308204915e-07,2.60308204915e-07,0.0001,-0.000103939667177,-6.81013404759e-05,0.000815993996705,0.999999659356
248760000000,1.30519699224,-0.0462548851439,9.80717882272,2.5e-05,2.5e-05,2.5e-05,-0.000286745485184,0.00242038078095,-0.00132565017262,0.0,0.0,0.0,0.000522705338395,0.00994088115012,0.0810866364422,2.5e-05,2.5e-05,2.5e-05,-0.0019029701096,0.00220383219998,0.00052065356973,0.0,0.0,0.0,7.43696149626e-05,0.000153319107165,0.973087941522,-0.230434001456,2.60308204915e-07,2.60308204915e-07,0.0001,-0.000103877547763,-6.8357719622e-05,0.000814868088381,0.999999660263
248780000000,1.26386083424,-0.0336676181996,9.79451660164,2.5e-05,2.5e-05,2.5e-05,-0.000289643573289,0.00241549483347,-0.00132868814065,0.0,0.0,0.0,0.00261048710398,0.00695312584253,0.122758217018,2.5e-05,2.5e-05,2.5e-05,-0.0019017292093,0.00220342162826,0.000521279637072,0.0,0.0,0.0,7.68058744516e-05,0.00015378846056,0.972801282596,-0.231641177317,2.60308204915e-07,2.60308204915e-07,0.0001,-0.000103418579627,-6.86348772444e-05,0.000814044839938,0.999999660962
248800000000,1.03514755808,-0.0228246014021,9.80296966081,2.5e-05,2.5e-05,2.5e-05,-0.000291975579639,0.00241911571681,-0.00132878254966,0.0,0.0,0.0,0.00261298672367,0.00548939724589,0.104913747762,2.5e-05,2.5e-05,2.5e-05,-0.00190158843214,0.00220356495229,0.00052184223846,0.0,0.0,0.0,5.97182553936e-05,0.000146278162889,0.972544872434,-0.232715375811,2.60308204915e-07,2.60308204915e-07,0.0001,-0.000103376742275,-6.9053928258e-05,0.00082176074414,0.999999654627
248820000000,0.478411890658,0.0925537852968,9.80552661093,2.5e-05,2.5e-05,2.5e-05,-0.000289363879921,0.00241727432641,-0.00132581584913,0.0,0.0,0.0,0.0102012304742,-0.00347408621552,0.0237938648565,2.5e-05,2.5e-05,2.5e-05,-0.00190034288033,0.00220225348225,0.000521888022962,0.0,0.0,0.0,5.47713807887e-05,0.000139908342928,0.972483798864,-0.232970466739,2.60308204915e-07,2.60308204915e-07,0.0001,-0.00010331638654,-6.89467157933e-05,0.000827502019908,0.999999649906
248840000000,0.65992722213,-0.0747375107227,9.80618977552,2.5e-05,2.5e-05,2.5e-05,-0.000289168922726,0.00241874562872,-0.00132808914259,0.0,0.0,0.0,-0.000791779412606,0.0155271163009,0.00639705267234,2.5e-05,2.5e-05,2.5e-05,-0.00190124581145,0.00220320881538,0.00052234969478,0.0,0.0,0.0,5.10957282421e-05,0.000140773412651,0.972463129286,-0.233056730759,2.60308204915e-07,2.60308204915e-07,0.0001,-0.000103375253673,-6.89911394074e-05,0.00082257876673,0.999999653959
248860000000,0.685519617855,0.00916738635531,9.79599148537,2.5e-05,2.5e-05,2.5e-05,-0.000287315244638,0.0024207114163,-0.00132709599291,0.0,0.0,0.0,0.00320036035021,0.00445095167733,0.0304700093175,2.5e-05,2.5e-05,2.5e-05,-0.00189996544078,0.0022021667137,0.000523235485559,0.0,0.0,0.0,4.86396601679e-05,0.000141483517705,0.972398678377,-0.233325497765,2.60308204915e-07,2.60308204915e-07,0.0001,-0.000103468660525,-6.90107888729e-05,0.000812543385834,0.999999662152
248880000000,0.628713906262,0.00740089358622,9.80543981688,2.5e-05,2.5e-05,2.5e-05,-0.000288380855362,0.00241698030871,-0.00132561854339,0.0,0.0,0.0,0.00386927132961,-0.00439445945026,0.0460878258344,2.5e-05,2.5e-05,2.5e-05,-0.0018991661694,0.00220248916614,0.000524021102403,0.0,0.0,0.0,4.12118705786e-05,0.000140586096087,0.972291789746,-0.233770515957,2.60308204915e-07,2.60308204915e-07,0.0001,-0.000103210730803,-6.9068596187e-05,0.000811361940423,0.999999663134
248900000000,-0.222804958046,0.0351955808604,9.80136823452,2.5e-05,2.5e-05,2.5e-05,-0.000287500637737,0.00241682404507,-0.00132343819506,0.0,0.0,0.0,-0.00360272007081,-0.00114282322206,0.0635799556,2.5e-05,2.5e-05,2.5e-05,-0.00190171093682,0.00220222384858,0.000524095945186,0.0,0.0,0.0,4.35605307426e-05,0.000141332167217,0.97215124545,-0.234354291827,2.60308204915e-07,2.60308204915e-07,0.0001,-0.000103141377567,-6.91483378516e-05,0.000813902004039,0.999999661072
248920000000,-0.135212711335,-0.0426345526226,9.80487314788,2.5e-05,2.5e-05,2.5e-05,-0.000287971718023,0.00241888498577,-0.00132317655379,0.0,0.0,0.0,0.00876767596496,0.00124286185177,0.0985936208845,2.5e-05,2.5e-05,2.5e-05,-0.00190187232862,0.00220330502373,0.000523318206763,0.0,0.0,0.0,4.18089901744e-05,0.000144297955191,0.971895768504,-0.235411538785,2.60308204915e-07,2.60308204915e-07,0.0001,-0.000103073967698,-6.94416900019e-05,0.000819404179295,0.999999656565
248940000000,0.610047169315,0.0791406895909,9.80722293604,2.5e-05,2.5e-05,2.5e-05,-0.000287376727594,0.00242076682761,-0.00132584694506,0.0,0.0,0.0,-0.00931026354989,-0.00260349390913,0.130206962491,2.5e-05,2.5e-05,2.5e-05,-0.00190298687062,0.00220413458101,0.000525343855413,0.0,0.0,0.0,4.90315108697e-05,0.000143815381617,0.971597074735,-0.236641292422,2.60308204915e-07,2.60308204915e-07,0.0001,-0.000102997586157,-6.97179916699e-05,0.000823835276309,0.999999652913
248960000000,1.06914794676,-0.00923526592955,9.79720758119,2.5e-05,2.5e-05,2.5e-05,-0.000287599937473,0.00241767515147,-0.0013239016967,0.0,0.0,0.0,-0.00087962624923,0.00652914189872,0.12477504048,2.5e-05,2.5e-05,2.5e-05,-0.00190365705355,0.00220408741479,0.000525634025097,0.0,0.0,0.0,5.439497043e-05,0.000141540642046,0.971318368611,-0.237782681888,2.60308204915e-07,2.60308204915e-07,0.0001,-0.000102687924734,-6.98967289312e-05,0.00082071654286,0.999999655497
248980000000,0.989207908224,0.000678849204445,9.797766601,2.5e-05,2.5e-05,2.5e-05,-0.000285628702961,0.00241410852603,-0.00131751161585,0.0,0.0,0.0,0.0026360727597,-0.00116857600833,0.0904459458291,2.5e-05,2.5e-05,2.5e-05,-0.0019033493788,0.00220468561754,0.000525002636545,0.0,0.0,0.0,5.59949437334e-05,0.000138962139273,0.971095556325,-0.238691009551,2.60308204915e-07,2.60308204915e-07,0.0001,-0.000102442097523,-6.99148552624e-05,0.000822900644663,0.999999653726
249000000000,0.63005863171,0.0102628397319,9.80198117286,2.5e-05,2.5e-05,2.5e-05,-0.000286710165254,0.00241310679736,-0.00132189262816,0.0,0.0,0.0,-0.00563710933791,-0.00330051264598,0.0463502669022,2.5e-05,2.5e-05,2.5e-05,-0.00190442152048,0.00220550070819,0.000524757645083,0.0,0.0,0.0,5.46166773504e-05,0.000136396316231,0.970963753692,-0.23922660268,2.60308204915e-07,2.60308204915e-07,0.0001,-0.0001022942723,-7.00521845034e-05,0.000831267080703,0.999999646812
249020000000,-0.348624213325,0.0778227225846,9.7986626672,2.5e-05,2.5e-05,2.5e-05,-0.000289642802026,0.0024144568786,-0.00132098828984,0.0,0.0,0.0,-0.000324232676016,-0.00507765311912,-0.0242892773326,2.5e-05,2.5e-05,2.5e-05,-0.00190556021192,0.00220605766017,0.000523738861384,0.0,0.0,0.0,5.0961880235e-05,0.000134137032751,0.971026557218,-0.238971556023,2.60308204915e-07,2.60308204915e-07,0.0001,-0.000102323047848,-7.01623325336e-05,0.000841144984834,0.999999638541
249040000000,0.550440910125,-0.084577409383,9.79627220799,2.5e-05,2.5e-05,2.5e-05,-0.000289597044651,0.00241170814915,-0.00132194488979,0.0,0.0,0.0,0.00165847721641,0.00110336256838,-0.0363538913715,2.5e-05,2.5e-05,2.5e-05,-0.00190656365206,0.00220643422456,0.000524203416637,0.0,0.0,0.0,4.57030617324e-05,0.000136539524806,0.971132972363,-0.238538737438,2.60308204915e-07,2.60308204915e-07,0.0001,-0.000102262743909,-7.00045162308e-05,0.000845165080449,0.999999635169
249060000000,0.245976079288,0.006414424716,9.8073181543,2.5e-05,2.5e-05,2.5e-05,-0.000295057881507,0.00240940368106,-0.00132581317923,0.0,0.0,0.0,-0.00204211746646,-0.00151767017387,-0.0191352555804,2.5e-05,2.5e-05,2.5e-05,-0.00190514625934,0.0022061021813,0.000523953021541,0.0,0.0,0.0,4.09300979378e-05,0.000137557420318,0.971203608343,-0.238250982253,2.60308204915e-07,2.60308204915e-07,0.0001,-0.000102071117604,-7.01374550309e-05,0.000843451381232,0.999999636626
249080000000,-0.676223329965,-0.0045002399607,9.79774136598,2.5e-05,2.5e-05,2.5e-05,-0.000292223493988,0.00240650354897,-0.00132559360609,0.0,0.0,0.0,0.00482796436202,-0.000829348621166,-0.0169530924789,2.5e-05,2.5e-05,2.5e-05,-0.00190474541134,0.00220639260016,0.000523155112737,0.0,0.0,0.0,3.21495765174e-05,0.000136409743871,0.971238807376,-0.238107453487,2.60308204915e-07,2.60308204915e-07,0.0001,-0.000102027271633,-6.99113657418e-05,0.000848046283146,0.99999963276
249100000000,-1.91400712175,0.00192594054683,9.80177777848,2.5e-05,2.5e-05,2.5e-05,-0.000295470609148,0.00240459301384,-0.00132641477747,0.0,0.0,0.0,-0.00736162240295,0.0071284425689,-0.0279035631585,2.5e-05,2.5e-05,2.5e-05,-0.00190390868529,0.00220679345072,0.000524631418629,0.0,0.0,0.0,2.0225190992e-05,0.000131225442158,0.971296280614,-0.237872902275,2.60308204915e-07,2.60308204915e-07,0.0001,-0.000101897096596,-6.99654498987e-05,0.000848368989563,0.999999632496
249120000000,-1.56016569662,0.0467896829184,9.79173563907,2.5e-05,2.5e-05,2.5e-05,-0.000299385086722,0.00240414396328,-0.00132579940578,0.0,0.0,0.0,-0.00414988385975,0.0058275912821,0.0046956803879,2.5e-05,2.5e-05,2.5e-05,-0.0019031869248,0.00220601866295,0.000524952869093,0.0,0.0,0.0,1.79309585879e-05,0.000139507199183,0.971282716012,-0.237928278675,2.60308204915e-07,2.60308204915e-07,0.0001,-0.000101777699873,-7.01441741497e-05,0.000848901761266,0.999999632043
249140000000,-2.36788150907,-0.0592531028634,9.81450173181,2.5e-05,2.5e-05,2.5e-05,-0.000297441861818,0.00240746392914,-0.0013272925339,0.0,0.0,0.0,-0.00339106460063,-0.00179528224911,0.0126285230214,2.5e-05,2.5e-05,2.5e-05,-0.00190391543867,0.00220704471224,0.000524505051542,0.0,0.0,0.0,3.35123942932e-05,0.000135534747513,0.971248275116,-0.238068831625,2.60308204915e-07,2.60308204915e-07,0.0001,-0.000101953099183,-7.01621061978e-05,0.000844927226279,0.99999963539
249160000000,-2.43877547716,0.00882691304885,9.79330552745,2.5e-05,2.5e-05,2.5e-05,-0.000296094351208,0.00240811597046,-0.00132767336013,0.0,0.0,0.0,-0.00640650891966,-0.00342484138721,-0.0592018300855,2.5e-05,2.5e-05,2.5e-05,-0.00190460070996,0.00220683093518,0.000524210011671,0.0,0.0,0.0,4.71554568605e-05,0.000136088453318,0.971393949422,-0.237473733879,2.60308204915e-07,2.60308204915e-07,0.0001,-0.000102100901417,-6.99893611626e-05,0.000847896825955,0.999999632874
249180000000,-2.19662913669,0.0289044388199,9.79155197915,2.5e-05,2.5e-05,2.5e-05,-0.000298450910334,0.00241001239403,-0.00132819107331,0.0,0.0,0.0,-0.00278557179183,0.00583641238456,-0.120928758596,2.5e-05,2.5e-05,2.5e-05,-0.00190514061312,0.00220699154884,0.00052479652678,0.0,0.0,0.0,5.1388942966e-05,0.000135949288008,0.971681935578,-0.236292604514,2.60308204915e-07,2.60308204915e-07,0.0001,-0.000102301084973,-6.98925383544e-05,0.00083821393837,0.999999641023
249200000000,-1.68738763588,0.0378253759344,9.79018013941,2.5e-05,2.5e-05,2.5e-05,-0.000301884353784,0.00241465609594,-0.00132796087019,0.0,0.0,0.0,-0.00963936553668,0.0126722823092,-0.114040338904,2.5e-05,2.5e-05,2.5e-05,-0.00190446714736,0.00220510338946,0.000523926962702,0.0,0.0,0.0,2.99240775144e-05,0.000135531415773,0.971942810686,-0.235217247438,2.60308204915e-07,2.60308204915e-07,0.0001,-0.000102586124882,-6.99319978706e-05,0.000845826118376,0.999999634582
249220000000,-1.01698758197,0.0499683057899,9.80406065342,2.5e-05,2.5e-05,2.5e-05,-0.000301967404153,0.00241614398124,-0.00132777350083,0.0,0.0,0.0,0.00311918142641,0.00511266055672,-0.0790212120491,2.5e-05,2.5e-05,2.5e-05,-0.00190393159951,0.0022053751469,0.00052444174159,0.0,0.0,0.0,2.33391277336e-05,0.000135761526131,0.97212729349,-0.234453633532,2.60308204915e-07,2.60308204915e-07,0.0001,-0.000102760797693,-6.98107542473e-05,0.000837872675042,0.999999641268
249240000000,-0.690918779938,-0.154331459083,9.79274571007,2.5e-05,2.5e-05,2.5e-05,-0.000304047379136,0.00241491841726,-0.00132791894786,0.0,0.0,0.0,0.0025527825096,-0.000466114349134,-0.0522551438735,2.5e-05,2.5e-05,2.5e-05,-0.00190343570304,0.00220804136954,0.000524578372243,0.0,0.0,0.0,2.55625313294e-05,0.000134785114159,0.972261899962,-0.23389480341,2.60308204915e-07,2.60308204915e-07,0.0001,-0.000102736906301,-6.97586100099e-05,0.000835895883974,0.999999642928
249260000000,-0.97970600058,0.0447522345676,9.80393039144,2.5e-05,2.5e-05,2.5e-05,-0.000302921732419,0.00241397019709,-0.00132609692854,0.0,0.0,0.0,0.00334858176646,-0.00388236473988,-0.0676742622958,2.5e-05,2.5e-05,2.5e-05,-0.00190432632648,0.00220839276315,0.0005239388343,0.0,0.0,0.0,2.41856404315e-05,0.000135573052864,0.972403213573,-0.233306603566,2.60308204915e-07,2.60308204915e-07,0.0001,-0.000102804499199,-6.95608991888e-05,0.000840606917263,0.999999638986
249280000000,-0.295735093819,0.0188270450507,9.79113894001,2.5e-05,2.5e-05,2.5e-05,-0.000306752592404,0.00241251760505,-0.00132846104771,0.0,0.0,0.0,-0.000877283557035,0.00220210250206,-0.0795910791745,2.5e-05,2.5e-05,2.5e-05,-0.00190373495664,0.00220921476149,0.000524402931358,0.0,0.0,0.0,2.7514258146e-05,0.000135156711481,0.972582601962,-0.232557655939,2.60308204915e-07,2.60308204915e-07,0.0001,-0.000102757369458,-6.95426714049e-05,0.000842971100565,0.999999637002
249300000000,0.535925019126,0.0165590895618,9.79562650497,2.5e-05,2.5e-05,2.5e-05,-0.000308345618277,0.00241338555604,-0.00132775709499,0.0,0.0,0.0,-0.00373614319115,-0.00554818148378,-0.0945693867689,2.5e-05,2.5e-05,2.5e-05,-0.00190352547469,0.00220894810806,0.000525312541157,0.0,0.0,0.0,3.15601241698e-05,0.000135259865657,0.972808616315,-0.231610398582,2.60308204915e-07,2.60308204915e-07,0.0001,-0.000102895461189,-6.94348081972e-05,0.000838901778951,0.999999640418
249320000000,0.513536926463,-0.0620035989698,9.79786873289,2.5e-05,2.5e-05,2.5e-05,-0.000308491746232,0.00241246096687,-0.00132821881594,0.0,0.0,0.0,-0.0047224855759,-0.00158374464248,-0.0801361518933,2.5e-05,2.5e-05,2.5e-05,-0.00190502757762,0.00220790481298,0.000527373153891,0.0,0.0,0.0,5.21227374367e-05,0.000142151692792,0.972990657288,-0.230844445257,2.60308204915e-07,2.60308204915e-07,0.0001,-0.000102960665744,-6.92558034138e-05,0.000838193601943,0.999999641017
249340000000,-0.77020431221,0.137395816636,9.79550375495,2.5e-05,2.5e-05,2.5e-05,-0.000309546346448,0.00241784833515,-0.00132515294722,0.0,0.0,0.0,-0.0114234216535,0.00456226878672,-0.128966378209,2.5e-05,2.5e-05,2.5e-05,-0.00190435426073,0.00220823874957,0.00052705466697,0.0,0.0,0.0,4.41568258058e-05,0.000139894149131,0.973275494889,-0.229640565945,2.60308204915e-07,2.60308204915e-07,0.0001,-0.000103352890178,-6.91729578418e-05,0.000835339718125,0.99999964337
249360000000,-0.356433936057,0.0163288759705,9.79381295257,2.5e-05,2.5e-05,2.5e-05,-0.000312553356787,0.00241715256866,-0.00132365274876,0.0,0.0,0.0,-0.00541170606345,6.22648505726e-05,-0.126856417249,2.5e-05,2.5e-05,2.5e-05,-0.00190462168927,0.00220770232971,0.000527227571119,0.0,0.0,0.0,4.14466484947e-05,0.000139685201201,0.973576261041,-0.228362086842,2.60308204915e-07,2.60308204915e-07,0.0001,-0.000103434587999,-6.9022772381e-05,0.000840675934524,0.9999996389
249380000000,1.06013348711,0.0256128850438,9.78305857079,2.5e-05,2.5e-05,2.5e-05,-0.000315357463825,0.00241217271295,-0.00131937444266,0.0,0.0,0.0,-0.00539535711314,-0.00602653633378,-0.0959811918302,2.5e-05,2.5e-05,2.5e-05,-0.0019053718189,0.00220770230741,0.000528249982977,0.0,0.0,0.0,6.04901397979e-05,0.000145518942729,0.973813787286,-0.227347053766,2.60308204915e-07,2.60308204915e-07,0.0001,-0.000103288413389,-6.88208440412e-05,0.000839531069191,0.999999639891
249400000000,1.36498919345,-0.00430348376292,9.80366897239,2.5e-05,2.5e-05,2.5e-05,-0.000315233382087,0.00241011367872,-0.00131883065853,0.0,0.0,0.0,-0.00742997126887,0.000323547179752,-0.0503177796299,2.5e-05,2.5e-05,2.5e-05,-0.00190510155319,0.00220845493124,0.000528560087137,0.0,0.0,0.0,5.96261748135e-05,0.000144693043745,0.973930520245,-0.226846461829,2.60308204915e-07,2.60308204915e-07,0.0001,-0.00010326811004,-6.86617933637e-05,0.000848428225389,0.999999632395
249420000000,0.397563103242,0.0879869578586,9.80699989026,2.5e-05,2.5e-05,2.5e-05,-0.000315773419808,0.00240975895867,-0.00132018576453,0.0,0.0,0.0,-0.00165888406066,0.00165992499632,-0.0284830726975,2.5e-05,2.5e-05,2.5e-05,-0.00190467464475,0.00220680997514,0.00053007468935,0.0,0.0,0.0,5.37439911406e-05,0.000144747529302,0.974000838045,-0.226544352495,2.60308204915e-07,2.60308204915e-07,0.0001,-0.000103281486186,-6.86162276958e-05,0.000838888762902,0.999999640445
249440000000,-0.0170147739749,-0.152589724432,9.79534318837,2.5e-05,2.5e-05,2.5e-05,-0.000316594006499,0.00241252631346,-0.0013210181746,0.0,0.0,0.0,-0.00223136417918,0.00220623921525,0.018286692859,2.5e-05,2.5e-05,2.5e-05,-0.00190542068102,0.0022061102133,0.000530041531623,0.0,0.0,0.0,4.42548461128e-05,0.000142040397448,0.97396522952,-0.22669739644,2.60308204915e-07,2.60308204915e-07,0.0001,-0.00010336727988,-6.87500303548e-05,0.000835137088228,0.999999643567
249460000000,0.412077601782,0.0378711153806,9.80682093326,2.5e-05,2.5e-05,2.5e-05,-0.000316657167224,0.00241541854441,-0.00131984041718,0.0,0.0,0.0,0.00675582873482,0.00650574744593,0.0214403983926,2.5e-05,2.5e-05,2.5e-05,-0.00190464696129,0.00220734758544,0.000529449690759,0.0,0.0,0.0,4.37719207163e-05,0.000142436651261,0.973907737901,-0.226944257148,2.60308204915e-07,2.60308204915e-07,0.0001,-0.000103463281426,-6.88707172431e-05,0.000833069530657,0.999999645274
249480000000,0.352927194045,0.00710380447566,9.79725915652,2.5e-05,2.5e-05,2.5e-05,-0.000317109028214,0.00241484703829,-0.00131924002114,0.0,0.0,0.0,-0.00077756446271,0.000889826519861,0.028031644001,2.5e-05,2.5e-05,2.5e-05,-0.00190369754901,0.00220737610332,0.000528990235375,0.0,0.0,0.0,3.69050452156e-05,0.00014116766578,0.973831149843,-0.227272678307,2.60308204915e-07,2.60308204915e-07,0.0001,-0.000103380014246,-6.89492493949e-05,0.000831995248304,0.999999646171
249500000000,0.664720557315,0.00456117088981,9.79247269753,2.5e-05,2.5e-05,2.5e-05,-0.000316058668147,0.00241690104203,-0.00132014668994,0.0,0.0,0.0,0.0107511961346,0.00209520284925,0.0381672734092,2.5e-05,2.5e-05,2.5e-05,-0.00190423954856,0.00220659546685,0.000527769670871,0.0,0.0,0.0,3.61359873094e-05,0.000139790947954,0.97374995424,-0.227620310542,2.60308204915e-07,2.60308204915e-07,0.0001,-0.000103448359068,-6.90212225107e-05,0.000833793509011,0.999999644661
249520000000,0.285130323426,-0.0603315889998,9.80186262042,2.5e-05,2.5e-05,2.5e-05,-0.000318130742601,0.00241374229205,-0.0013194968423,0.0,0.0,0.0,-0.00428372916458,-0.00662300106739,0.0431762490597,2.5e-05,2.5e-05,2.5e-05,-0.00190517476155,0.00220840153469,0.000528534715815,0.0,0.0,0.0,4.37435481039e-05,0.000141829772838,0.973659320854,-0.228007686023,2.60308204915e-07,2.60308204915e-07,0.0001,-0.000103202458362,-6.9126122168e-05,0.000831645821381,0.999999646468
249540000000,0.645211178935,0.186889713408,9.77663436914,2.5e-05,2.5e-05,2.5e-05,-0.000314661535718,0.00241195092515,-0.00131914650225,0.0,0.0,0.0,0.00869451007611,0.00167009767118,0.0187618169773,2.5e-05,2.5e-05,2.5e-05,-0.00190609685838,0.0022098343458,0.000527004084033,0.0,0.0,0.0,6.99418898856e-05,0.000152074568346,0.973626924592,-0.228145970138,2.60308204915e-07,2.60308204915e-07,0.0001,-0.00010318129539,-6.89535439124e-05,0.000827991168385,0.999999649515
249560000000,1.25554322115,-0.0708822839958,9.81319758151,2.5e-05,2.5e-05,2.5e-05,-0.000315877969622,0.00240843342631,-0.00131831040264,0.0,0.0,0.0,-0.00834687439234,0.0038469266206,0.0729229165778,2.5e-05,2.5e-05,2.5e-05,-0.00190606338591,0.00220908536534,0.000527424304333,0.0,0.0,0.0,7.21374583576e-05,0.000151130175859,0.973486672393,-0.228743678882,2.60308204915e-07,2.60308204915e-07,0.0001,-0.000102907956738,-6.90559810849e-05,0.000824940603298,0.999999652057
249580000000,1.35130136466,-0.0198371302802,9.80786660656,2.5e-05,2.5e-05,2.5e-05,-0.000314169107401,0.00240387426819,-0.00131912512733,0.0,0.0,0.0,-0.000995858644745,-0.000922556119957,0.103586959612,2.5e-05,2.5e-05,2.5e-05,-0.0019066218749,0.00220895420368,0.000527637130853,0.0,0.0,0.0,7.57125383098e-05,0.000152376584841,0.973238835961,-0.229795864249,2.60308204915e-07,2.60308204915e-07,0.0001,-0.00010258865002,-6.90972727951e-05,0.000812342291107,0.999999662401
249600000000,1.09332031454,-0.0357752545726,9.80535518635,2.5e-05,2.5e-05,2.5e-05,-0.000311178470412,0.00240307937407,-0.00132441075451,0.0,0.0,0.0,0.00220862168537,0.00434597584034,0.116916165071,2.5e-05,2.5e-05,2.5e-05,-0.00190700406144,0.00221037593444,0.000528991161244,0.0,0.0,0.0,6.23463322033e-05,0.000146510214609,0.972974400004,-0.230912952396,2.60308204915e-07,2.60308204915e-07,0.0001,-0.000102460529283,-6.91799492578e-05,0.000808701648191,0.999999665359
249620000000,0.681329160719,0.087073782388,9.79542018571,2.5e-05,2.5e-05,2.5e-05,-0.000309666746716,0.00240604499519,-0.00132225050071,0.0,0.0,0.0,-0.00491959513796,0.00225789131508,0.0367838125249,2.5e-05,2.5e-05,2.5e-05,-0.00190694101191,0.00221166898315,0.000531502917041,0.0,0.0,0.0,4.51623048593e-05,0.000136888313251,0.972886928119,-0.231281223443,2.60308204915e-07,2.60308204915e-07,0.0001,-0.000102576456871,-6.92580484117e-05,0.000813509147718,0.999999661442
249640000000,0.685525987971,-0.0702924298261,9.80340996344,2.5e-05,2.5e-05,2.5e-05,-0.000308396897731,0.00240776939317,-0.00131975053797,0.0,0.0,0.0,-0.00599795222057,0.00504393100069,0.018778344529,2.5e-05,2.5e-05,2.5e-05,-0.00190650538766,0.00221082393452,0.000530469087727,0.0,0.0,0.0,4.22063954826e-05,0.000138247590052,0.9728367919,-0.231492020234,2.60308204915e-07,2.60308204915e-07,0.0001,-0.00010265401765,-6.92849239644e-05,0.000810714170637,0.999999663702
249660000000,0.580582910395,0.0235693579124,9.79776641963,2.5e-05,2.5e-05,2.5e-05,-0.000310655120694,0.0024091500626,-0.00132104679104,0.0,0.0,0.0,0.0032320717176,-0.00119575827281,0.0404363126499,2.5e-05,2.5e-05,2.5e-05,-0.00190480069246,0.00221084085601,0.00053001179075,0.0,0.0,0.0,3.69575190483e-05,0.000138411372751,0.972745011691,-0.231877385069,2.60308204915e-07,2.60308204915e-07,0.0001,-0.00010260974891,-6.95017889023e-05,0.000807755791922,0.999999666086
249680000000,-0.0980215722322,-0.0582842696681,9.81481264053,2.5e-05,2.5e-05,2.5e-05,-0.000313173048569,0.00240788535804,-0.00132147005372,0.0,0.0,0.0,-0.000380485481718,0.0102896241139,0.0452095355424,2.5e-05,2.5e-05,2.5e-05,-0.00190263200362,0.00221106283232,0.000530194661546,0.0,0.0,0.0,2.84564057725e-05,0.000136546574437,0.972652427608,-0.232265442142,2.60308204915e-07,2.60308204915e-07,0.0001,-0.000102438207544,-6.9670248903e-05,0.000807443620424,0.999999666344
249700000000,-0.794113903696,0.0798450258641,9.76793873108,2.5e-05,2.5e-05,2.5e-05,-0.000311263532304,0.0024080727278,-0.00132502762296,0.0,0.0,0.0,-0.00927397723816,0.0024950755526,0.0239609301028,2.5e-05,2.5e-05,2.5e-05,-0.00190164634663,0.00221060534711,0.00053097258783,0.0,0.0,0.0,3.33814837001e-05,0.000134452178001,0.972598184585,-0.232492477621,2.60308204915e-07,2.60308204915e-07,0.0001,-0.000102458058956,-6.96347467183e-05,0.000807211919797,0.999999666531
249720000000,-0.769025840649,-0.0329623059756,9.79009786915,2.5e-05,2.5e-05,2.5e-05,-0.000309703784672,0.00240894552811,-0.0013273222239,0.0,0.0,0.0,-0.0109620158075,0.00345536338222,0.0412589654815,2.5e-05,2.5e-05,2.5e-05,-0.00190343326034,0.00220949488392,0.000528152056552,0.0,0.0,0.0,3.61349082008e-05,0.000142659181069,0.972499851287,-0.23290345122,2.60308204915e-07,2.60308204915e-07,0.0001,-0.000102475679728,-6.96708931648e-05,0.000801984434074,0.999999670733
249740000000,0.870301415276,0.0592241565026,9.81075717664,2.5e-05,2.5e-05,2.5e-05,-0.000308370547509,0.00240772313925,-0.00132959956568,0.0,0.0,0.0,-0.000455631247121,0.00312899531282,0.075333251148,2.5e-05,2.5e-05,2.5e-05,-0.00190248409964,0.00220990574795,0.000526715032423,0.0,0.0,0.0,6.39963196862e-05,0.000151183356735,0.972327847815,-0.233620481577,2.60308204915e-07,2.60308204915e-07,0.0001,-0.000102350766666,-6.97286458672e-05,0.000811369266166,0.999999663171
249760000000,1.31483230056,-0.0224792031341,9.79797481594,2.5e-05,2.5e-05,2.5e-05,-0.000306680728128,0.00240341650201,-0.00133338618074,0.0,0.0,0.0,0.00412028310002,-0.00609739986934,0.122206512291,2.5e-05,2.5e-05,2.5e-05,-0.00190249206449,0.00221018887109,0.000527015321685,0.0,0.0,0.0,6.49088730689e-05,0.000149314843173,0.972052531419,-0.234763390788,2.60308204915e-07,2.60308204915e-07,0.0001,-0.000102029682924,-6.97925610588e-05,0.000805985435017,0.999999667553
249780000000,1.28850221064,-0.0178780484841,9.80229202325,2.5e-05,2.5e-05,2.5e-05,-0.000305456764233,0.00240280034671,-0.00132991690048,0.0,0.0,0.0,-0.00600981425913,0.00362948837473,0.164169392267,2.5e-05,2.5e-05,2.5e-05,-0.00190169241242,0.00221065695421,0.000526314173958,0.0,0.0,0.0,6.67724540781e-05,0.000149713474668,0.971682698245,-0.236289456088,2.60308204915e-07,2.60308204915e-07,0.0001,-0.000101810799602,-7.00424716563e-05,0.000806316223173,0.999999667291
249800000000,0.365163213507,0.00495456065521,9.81171255756,2.5e-05,2.5e-05,2.5e-05,-0.000308398000232,0.00240411213162,-0.00132765762153,0.0,0.0,0.0,-0.00325639105924,0.00507027964362,0.133505190389,2.5e-05,2.5e-05,2.5e-05,-0.00189993393443,0.00220904249117,0.000525479337997,0.0,0.0,0.0,5.01805626494e-05,0.000144373113175,0.97136514799,-0.237591510597,2.60308204915e-07,2.60308204915e-07,0.0001,-0.000101611960789,-7.0480710414e-05,0.000810362767181,0.99999966401
249820000000,0.245303466811,0.0822928772923,9.7896012289,2.5e-05,2.5e-05,2.5e-05,-0.00030762729232,0.00240268750224,-0.00133010373409,0.0,0.0,0.0,-0.0029478731451,-0.00486989194379,0.039761692683,2.5e-05,2.5e-05,2.5e-05,-0.00189934865409,0.0022105397718,0.000525634885567,0.0,0.0,0.0,4.96867358777e-05,0.00013757254022,0.97128564027,-0.23791633742,2.60308204915e-07,2.60308204915e-07,0.0001,-0.000101517340733,-7.04803813465e-05,0.000807173217063,0.999999666599
249840000000,0.456797301045,-0.0660498834328,9.79263212171,2.5e-05,2.5e-05,2.5e-05,-0.000309985417536,0.00240158609422,-0.00133060957187,0.0,0.0,0.0,-0.00264641322136,-0.00312438190749,0.0195944429841,2.5e-05,2.5e-05,2.5e-05,-0.00189905833159,0.00220985776765,0.000525185749836,0.0,0.0,0.0,4.85752426647e-05,0.000138425132957,0.971268508229,-0.237986267253,2.60308204915e-07,2.60308204915e-07,0.0001,-0.000101401749494,-7.05761629532e-05,0.000805040012742,0.999999668324
249860000000,0.631917515982,0.0163959427986,9.80629698885,2.5e-05,2.5e-05,2.5e-05,-0.000309084641185,0.00240101951022,-0.00133309973348,0.0,0.0,0.0,-0.00694128379953,-0.00691399727481,0.0135623115109,2.5e-05,2.5e-05,2.5e-05,-0.00189761572583,0.00221026040783,0.000524733460191,0.0,0.0,0.0,4.78205600797e-05,0.000139757815387,0.97121386087,-0.238209182516,2.60308204915e-07,2.60308204915e-07,0.0001,-0.000101365344411,-7.05683606483e-05,0.000808504209397,0.999999665533
249880000000,0.713664734814,0.0164830184199,9.79885872197,2.5e-05,2.5e-05,2.5e-05,-0.000309585189586,0.00240310442104,-0.00133101447568,0.0,0.0,0.0,0.00250427366926,-0.00334659335245,0.0389856010869,2.5e-05,2.5e-05,2.5e-05,-0.0018982941733,0.00221047057201,0.000523708632268,0.0,0.0,0.0,4.40468918903e-05,0.000141040119232,0.97111321031,-0.238619175528,2.60308204915e-07,2.60308204915e-07,0.0001,-0.000101388135894,-7.07264609639e-05,0.00080713904132,0.999999666622
249900000000,0.0385979413295,0.0272340046197,9.79691962834,2.5e-05,2.5e-05,2.5e-05,-0.000311396983508,0.00240536825778,-0.00132810384805,0.0,0.0,0.0,-0.00607914881084,0.00214751675377,0.0688068697631,2.5e-05,2.5e-05,2.5e-05,-0.00189789539227,0.00221114757183,0.000524836835027,0.0,0.0,0.0,4.43276476746e-05,0.000142038592381,0.970958866068,-0.239246438352,2.60308204915e-07,2.60308204915e-07,0.0001,-0.000101355964902,-7.09932358569e-05,0.000803311038386,0.999999669689
249920000000,-0.768832043817,-0.0492520760151,9.81727616612,2.5e-05,2.5e-05,2.5e-05,-0.000309657477094,0.00240473807857,-0.00132722850681,0.0,0.0,0.0,0.000324612100163,0.00826836929351,0.122008210319,2.5e-05,2.5e-05,2.5e-05,-0.00189778453031,0.00221113477589,0.000525776346418,0.0,0.0,0.0,3.46079440961e-05,0.000142437038283,0.970668587192,-0.240421447366,2.60308204915e-07,2.60308204915e-07,0.0001,-0.000101196798888,-7.11456731489e-05,0.000808077351758,0.999999665854
249940000000,-0.699007496124,0.110002471132,9.78649419623,2.5e-05,2.5e-05,2.5e-05,-0.000309573703701,0.00240642375476,-0.00132687782297,0.0,0.0,0.0,7.58421385518e-06,0.00503514754917,0.128360847793,2.5e-05,2.5e-05,2.5e-05,-0.00189799031452,0.00221006157625,0.000526424440329,0.0,0.0,0.0,3.36949812356e-05,0.00014025210254,0.970364246432,-0.241646867227,2.60308204915e-07,2.60308204915e-07,0.0001,-0.000101094593677,-7.14373498876e-05,0.000809702503198,0.999999664529
249960000000,0.559583707807,0.0116223122501,9.78762907269,2.5e-05,2.5e-05,2.5e-05,-0.000310333358472,0.00241073240044,-0.00132702764948,0.0,0.0,0.0,0.00802613617903,-0.00349066644891,0.112038076065,2.5e-05,2.5e-05,2.5e-05,-0.00189624277886,0.00220917402836,0.000526228738648,0.0,0.0,0.0,5.31153747158e-05,0.000143990807292,0.970079741918,-0.242786471545,2.60308204915e-07,2.60308204915e-07,0.0001,-0.000101103140084,-7.18100872046e-05,0.000806513622387,0.999999667079
249980000000,1.24583129885,0.00544572828958,9.80238991719,2.5e-05,2.5e-05,2.5e-05,-0.000313602413208,0.00240916521015,-0.00132934958373,0.0,0.0,0.0,-0.00157730137199,0.000646703314584,0.136497876623,2.5e-05,2.5e-05,2.5e-05,-0.00189661966658,0.00220979757731,0.000525572784626,0.0,0.0,0.0,7.48631611409e-05,0.000153131873608,0.969742326198,-0.244130685755,2.60308204915e-07,2.60308204915e-07,0.0001,-0.000100756434309,-7.21964708868e-05,0.000807765660011,0.999999666075
250000000000,0.960211943663,-0.0242517314657,9.80038886161,2.5e-05,2.5e-05,2.5e-05,-0.000313678380112,0.002408618019,-0.00133024209236,0.0,0.0,0.0,-0.00599069389383,0.00656115491921,0.115435798236,2.5e-05,2.5e-05,2.5e-05,-0.00189657769692,0.0022095629718,0.000525998976659,0.0,0.0,0.0,5.37224817156e-05,0.000142938623484,0.969446881266,-0.245301286352,2.60308204915e-07,2.60308204915e-07,0.0001,-0.000100553488837,-7.24319375566e-05,0.000809465605606,0.999999664704
250020000000,-0.540982581493,0.107260609624,9.78428526479,2.5e-05,2.5e-05,2.5e-05,-0.000313204442785,0.00240821627034,-0.00133168722468,0.0,0.0,0.0,-0.00605219527898,0.00424568397036,0.0305381386882,2.5e-05,2.5e-05,2.5e-05,-0.00189589489244,0.00220870868183,0.000527206044856,0.0,0.0,0.0,5.06990715953e-05,0.000138458320734,0.969391686945,-0.24551931806,2.60308204915e-07,2.60308204915e-07,0.0001,-0.000100513671199,-7.24463828064e-05,0.000809434263239,0.999999664732
250040000000,0.263861119378,-0.0744273857269,9.79194017127,2.5e-05,2.5e-05,2.5e-05,-0.000313809832234,0.00240614990427,-0.00133079256888,0.0,0.0,0.0,-0.000792525791121,0.000165185736398,-0.0147431632331,2.5e-05,2.5e-05,2.5e-05,-0.00189608534266,0.00220852469008,0.000525936852698,0.0,0.0,0.0,4.77204715773e-05,0.000138372037339,0.969415002349,-0.245427243386,2.60308204915e-07,2.60308204915e-07,0.0001,-0.000100419814451,-7.24048809006e-05,0.000808396956495,0.999999665584
250060000000,0.442374620944,0.0160438759055,9.79445634373,2.5e-05,2.5e-05,2.5e-05,-0.000313214996255,0.00240992277086,-0.00132852506732,0.0,0.0,0.0,-0.0024378420986,-0.00355798579192,0.00128488776452,2.5e-05,2.5e-05,2.5e-05,-0.0018958336748,0.00220874795173,0.000526113371419,0.0,0.0,0.0,4.50773392896e-05,0.000139435305588,0.969417396997,-0.245417784453,2.60308204915e-07,2.60308204915e-07,0.0001,-0.000100604751917,-7.24684700375e-05,0.000804384432015,0.999999668796
250080000000,0.439546171525,0.0187119831851,9.79828097414,2.5e-05,2.5e-05,2.5e-05,-0.000315981057393,0.00241181682914,-0.00132870542799,0.0,0.0,0.0,0.00121768537511,0.0015407521025,0.0178212836686,2.5e-05,2.5e-05,2.5e-05,-0.00189530455938,0.00220773417315,0.000525098147852,0.0,0.0,0.0,4.38722610851e-05,0.000140790351135,0.969376158634,-0.245580620825,2.60308204915e-07,2.60308204915e-07,0.0001,-0.000100598568716,-7.26723884215e-05,0.000805879763311,0.999999667578
250100000000,-0.639115095884,-0.0129038693373,9.81712439724,2.5e-05,2.5e-05,2.5e-05,-0.000318925737618,0.00240980874594,-0.00133234995176,0.0,0.0,0.0,0.00247451390392,0.0151119457724,0.0446701634093,2.5e-05,2.5e-05,2.5e-05,-0.0018957050056,0.00220831462198,0.000525272628465,0.0,0.0,0.0,3.35889054721e-05,0.000139002530791,0.969281627881,-0.245953461862,2.60308204915e-07,2.60308204915e-07,0.0001,-0.000100380557381,-7.28342246567e-05,0.000807071811288,0.999999666627
250120000000,-1.34118319574,0.0402803503706,9.7924948756,2.5e-05,2.5e-05,2.5e-05,-0.000319282483265,0.00240848709289,-0.00133157589883,0.0,0.0,0.0,0.00479889788279,0.00330471608273,0.0954440675246,2.5e-05,2.5e-05,2.5e-05,-0.00189654877682,0.00220789646244,0.000526936702324,0.0,0.0,0.0,2.39490321553e-05,0.000142419901716,0.969047707624,-0.24687348884,2.60308204915e-07,2.60308204915e-07,0.0001,-0.000100174256995,-7.30098730966e-05,0.000806567406717,0.999999667042
250140000000,-2.04812131901,-0.0212908558427,9.82932467429,2.5e-05,2.5e-05,2.5e-05,-0.000317876311074,0.00240594014138,-0.00133109256099,0.0,0.0,0.0,0.00265739271783,0.00261801942431,0.108995490308,2.5e-05,2.5e-05,2.5e-05,-0.00189680995474,0.00220830254583,0.000528132556629,0.0,0.0,0.0,2.20900306072e-05,0.000135734334279,0.968775002979,-0.247941474328,2.60308204915e-07,2.60308204915e-07,0.0001,-9.99316860858e-05,-7.31064126061e-05,0.000795074445439,0.999999676263
250160000000,-2.48087759628,0.0314530147876,9.7952498253,2.5e-05,2.5e-05,2.5e-05,-0.000317789468417,0.00240561715208,-0.00133116916102,0.0,0.0,0.0,-0.00310072153271,-0.000466495287128,0.0324418874193,2.5e-05,2.5e-05,2.5e-05,-0.00189808750007,0.002209177699,0.00052917662016,0.0,0.0,0.0,3.64486623723e-05,0.000135506726359,0.968678498642,-0.248318236497,2.60308204915e-07,2.60308204915e-07,0.0001,-9.98629274605e-05,-7.31704077622e-05,0.000795168087582,0.999999676191
250180000000,-2.40426644685,-0.0052699465974,9.79214232046,2.5e-05,2.5e-05,2.5e-05,-0.00031955860858,0.00240472383402,-0.00133037004674,0.0,0.0,0.0,-0.0097544912898,-0.00803514466237,-0.0321476026942,2.5e-05,2.5e-05,2.5e-05,-0.00189919230178,0.00220929215833,0.000530783156589,0.0,0.0,0.0,4.45668914215e-05,0.000135100367398,0.96875288924,-0.248027860028,2.60308204915e-07,2.60308204915e-07,0.0001,-9.98238807016e-05,-7.3166526198e-05,0.000797603654691,0.999999674255
250195000000,-2.04301430701,0.0486644205579,9.79693957004,2.5e-05,2.5e-05,2.5e-05,-0.000320490990649,0.00240469873772,-0.00133254945831,0.0,0.0,0.0,-0.00461429664153,0.00663348008945,-0.0595794454053,2.5e-05,2.5e-05,2.5e-05,-0.00189969984166,0.00220722457062,0.000531418919944,0.0,0.0,0.0,3.51666229468e-05,0.000133743382591,0.96891677351,-0.247386876949,2.60308204915e-07,2.60308204915e-07,0.0001,-9.98961680448e-05,-7.30767959172e-05,0.000796738692098,0.999999674944
250220000000,-0.3755480051,0.0995815268604,9.79679121804,2.5e-05,2.5e-05,2.5e-05,-0.000324003979245,0.00240584102874,-0.00133287155805,0.0,0.0,0.0,-0.000330593194886,-0.00588808663946,-0.0883916018257,2.5e-05,2.5e-05,2.5e-05,-0.00189946561532,0.00220826264059,0.000532136995286,0.0,0.0,0.0,1.45241632929e-05,0.000131258182504,0.969123217887,-0.246576907096,2.60308204915e-07,2.60308204915e-07,0.0001,-9.99830575205e-05,-7.30973728562e-05,0.000799413892371,0.999999672799
250240000000,-0.665319629735,-0.131885303923,9.80766882684,2.5e-05,2.5e-05,2.5e-05,-0.000322953424288,0.00240855172846,-0.00133412348439,0.0,0.0,0.0,0.00814116807427,0.003643442132,-0.0550087730002,2.5e-05,2.5e-05,2.5e-05,-0.00189959021421,0.00220940252526,0.000534048395842,0.0,0.0,0.0,2.37689298461e-05,0.000136236820815,0.969252778868,-0.246067128101,2.60308204915e-07,2.60308204915e-07,0.0001,-0.000100208076374,-7.30097131341e-05,0.000800709075086,0.999999671746
250260000000,-0.360527385355,-0.00469750609124,9.7927781848,2.5e-05,2.5e-05,2.5e-05,-0.000324662791324,0.00241235588422,-0.00133455960055,0.0,0.0,0.0,0.00377659838116,0.000284402133282,-0.050487545302,2.5e-05,2.5e-05,2.5e-05,-0.00189980018455,0.00220914988203,0.000533608112985,0.0,0.0,0.0,2.56397962724e-05,0.000136940533705,0.969363831836,-0.24562927781,2.60308204915e-07,2.60308204915e-07,0.0001,-0.000100403145453,-7.30882827985e-05,0.000797137854905,0.999999674574
250280000000,-0.315865378322,0.00718195134356,9.79784292323,2.5e-05,2.5e-05,2.5e-05,-0.00032691980167,0.00241116827556,-0.001332146588,0.0,0.0,0.0,-0.000770355189885,-0.00695720742841,-0.0418509073781,2.5e-05,2.5e-05,2.5e-05,-0.00189950799121,0.00220829396412,0.000535817774702,0.0,0.0,0.0,1.84052658174e-05,0.00013521873471,0.969465699763,-0.24522691198,2.60308204915e-07,2.60308204915e-07,0.0001,-0.00010035536071,-7.30783453121e-05,0.000797686353531,0.999999674142
250300000000,0.0594996880401,-0.00404768931877,9.79860036488,2.5e-05,2.5e-05,2.5e-05,-0.00032820604622,0.00241053486663,-0.00133236993543,0.0,0.0,0.0,0.00140936388843,0.00171582801776,-0.0664590386672,2.5e-05,2.5e-05,2.5e-05,-0.00190032120022,0.00220892969098,0.000536988185976,0.0,0.0,0.0,6.4147971928e-06,0.000129524038993,0.969591365236,-0.244729580644,2.60308204915e-07,2.60308204915e-07,0.0001,-0.000100369656139,-7.30191202115e-05,0.00079866429919,0.999999673365
250320000000,0.199108213306,0.00741714513912,9.79901694557,2.5e-05,2.5e-05,2.5e-05,-0.00033155737858,0.00240971134794,-0.00132974353118,0.0,0.0,0.0,-0.00157479691279,0.0123590969206,-0.0759118257966,2.5e-05,2.5e-05,2.5e-05,-0.0019011987238,0.00220870821666,0.000537660883575,0.0,0.0,0.0,2.64082850011e-05,0.000130084625652,0.969783037445,-0.243968937908,2.60308204915e-07,2.60308204915e-07,0.0001,-0.000100366936004,-7.29899050901e-05,0.000797685174229,0.999999674149
250340000000,-0.67453152252,0.0840266721559,9.8015863739,2.5e-05,2.5e-05,2.5e-05,-0.000328951210855,0.00240631364241,-0.00132881700428,0.0,0.0,0.0,-0.00789542379746,-0.00336729914981,-0.163145488641,2.5e-05,2.5e-05,2.5e-05,-0.00190118278539,0.0022097531193,0.000536954660014,0.0,0.0,0.0,3.34707028644e-05,0.000131544858497,0.970170214134,-0.242424704152,2.60308204915e-07,2.60308204915e-07,0.0001,-0.00010050859647,-7.24704397521e-05,0.000796619062048,0.999999675022
250360000000,-0.205887146145,0.0649126928853,9.79960779791,2.5e-05,2.5e-05,2.5e-05,-0.000330672276503,0.00241058655065,-0.00133191526691,0.0,0.0,0.0,-0.00167930971864,0.00559139849012,-0.144175389296,2.5e-05,2.5e-05,2.5e-05,-0.00190093238452,0.00220879206091,0.000537163005727,0.0,0.0,0.0,2.74587797263e-05,0.000137872920182,0.970537035758,-0.240951950519,2.60308204915e-07,2.60308204915e-07,0.0001,-0.000100880421802,-7.23455732961e-05,0.000795375015045,0.999999675984
250380000000,-0.470064543599,-0.00410753720188,9.80068906898,2.5e-05,2.5e-05,2.5e-05,-0.000327457505454,0.00240921171579,-0.00133078800398,0.0,0.0,0.0,0.00376747985436,0.0138846297931,-0.0268507018978,2.5e-05,2.5e-05,2.5e-05,-0.00190178204126,0.00220792281475,0.000537058566387,0.0,0.0,0.0,2.2445002963e-05,0.000142251662838,0.970596485258,-0.240712363759,2.60308204915e-07,2.60308204915e-07,0.0001,-0.000100931115949,-7.21186620464e-05,0.000796738861919,0.999999674909
250400000000,-0.497679391443,-0.0127391203179,9.79448399847,2.5e-05,2.5e-05,2.5e-05,-0.00032616267053,0.00241019322758,-0.0013341657384,0.0,0.0,0.0,-0.00558505741457,0.000990440760716,0.159541644649,2.5e-05,2.5e-05,2.5e-05,-0.00190251360917,0.00220711379635,0.000536295973844,0.0,0.0,0.0,2.72827026281e-05,0.000149764941388,0.970209015827,-0.242269359257,2.60308204915e-07,2.60308204915e-07,0.0001,-0.000100774970295,-7.24077248749e-05,0.000788647738914,0.999999681318
250420000000,-0.755753540026,-0.0716275569787,9.79597171582,2.5e-05,2.5e-05,2.5e-05,-0.000328336613235,0.0024130877187,-0.00133583592332,0.0,0.0,0.0,0.00586218218896,-0.000878885318251,0.341872011292,2.5e-05,2.5e-05,2.5e-05,-0.00190257581079,0.00220681952352,0.000536259637538,0.0,0.0,0.0,5.713663385e-05,0.000164529458987,0.969374154529,-0.245588513977,2.60308204915e-07,2.60308204915e-07,0.0001,-0.000100357001753,-7.32602209889e-05,0.000787146299149,0.999999682481
250440000000,-0.627968110119,-0.165682217875,9.80129793983,2.5e-05,2.5e-05,2.5e-05,-0.000326445404961,0.00241491046747,-0.00133142773777,0.0,0.0,0.0,0.00177131445488,0.00345380331002,0.423743368387,2.5e-05,2.5e-05,2.5e-05,-0.00190102788954,0.00220625910528,0.000538350767887,0.0,0.0,0.0,4.26233462529e-05,0.000149640185078,0.968334681058,-0.249655605286,2.60308204915e-07,2.60308204915e-07,0.0001,-9.98633461839e-05,-7.40627228462e-05,0.000779354235544,0.999999688574
250460000000,0.387788557076,0.012787668523,9.79324681273,2.5e-05,2.5e-05,2.5e-05,-0.000330100717183,0.00241570426288,-0.00133514552667,0.0,0.0,0.0,-0.00722451304205,0.000658830409797,0.292135181956,2.5e-05,2.5e-05,2.5e-05,-0.00189984298184,0.00220635508664,0.00053860161756,0.0,0.0,0.0,4.31645488111e-05,0.000142900028962,0.967613998111,-0.252434404107,2.60308204915e-07,2.60308204915e-07,0.0001,-9.93802137755e-05,-7.48167223011e-05,0.000782138308488,0.999999686393
250480000000,0.180061081016,-0.0127303347254,9.79651542892,2.5e-05,2.5e-05,2.5e-05,-0.000327514896658,0.00241774277286,-0.00133401907604,0.0,0.0,0.0,-0.000573896070143,-0.00119807918785,0.138668227853,2.5e-05,2.5e-05,2.5e-05,-0.00190003961223,0.00220545236354,0.00053862814772,0.0,0.0,0.0,4.06896505648e-05,0.000137566779108,0.967261927107,-0.253780109127,2.60308204915e-07,2.60308204915e-07,0.0001,-9.93253947673e-05,-7.50301131069e-05,0.000771365169837,0.99999969475
250500000000,0.14031615448,0.0868734634746,9.79075704692,2.5e-05,2.5e-05,2.5e-05,-0.000326050808444,0.00242192025134,-0.00133295110049,0.0,0.0,0.0,-0.00916174410488,0.00292374204024,0.064722062863,2.5e-05,2.5e-05,2.5e-05,-0.00189990770773,0.00220636781306,0.000538522982704,0.0,0.0,0.0,3.60569091281e-05,0.000136033107427,0.967103256627,-0.254384101737,2.60308204915e-07,2.60308204915e-07,0.0001,-9.94536051979e-05,-7.51942467734e-05,0.000772147040543,0.999999694122
250520000000,-0.679516212051,-0.032156553232,9.80381882834,2.5e-05,2.5e-05,2.5e-05,-0.000322177337535,0.0024181242283,-0.00133481312827,0.0,0.0,0.0,-0.0105382924967,0.0136599972988,0.0373880587765,2.5e-05,2.5e-05,2.5e-05,-0.00190095151519,0.00220656405774,0.000538112795207,0.0,0.0,0.0,2.48182584859e-05,0.00013366773415,0.967009509511,-0.25474024031,2.60308204915e-07,2.60308204915e-07,0.0001,-9.93261641368e-05,-7.50015084547e-05,0.000772576497343,0.999999693817
250540000000,-1.54734607587,-0.0182135501895,9.78931640284,2.5e-05,2.5e-05,2.5e-05,-0.000322862278829,0.00241547546299,-0.00133419596022,0.0,0.0,0.0,0.0110371445788,0.00906798125802,0.000786418239462,2.5e-05,2.5e-05,2.5e-05,-0.00189989589976,0.00220706102364,0.000536922867217,0.0,0.0,0.0,1.47444825699e-05,0.000129238266147,0.966994785187,-0.254796131252,2.60308204915e-07,2.60308204915e-07,0.0001,-9.9181034724e-05,-7.49790168518e-05,0.000763223924915,0.999999701015
250560000000,-1.77244067198,0.00260100548593,9.79650509414,2.5e-05,2.5e-05,2.5e-05,-0.000323069639193,0.00241452319674,-0.00133100920723,0.0,0.0,0.0,-0.003849987574,-1.72964119736e-05,-0.0331622015094,2.5e-05,2.5e-05,2.5e-05,-0.00189923513775,0.00220504439951,0.000536408284743,0.0,0.0,0.0,8.64367660002e-06,0.000125305315894,0.967085219742,-0.254452671395,2.60308204915e-07,2.60308204915e-07,0.0001,-9.91868393071e-05,-7.48934979069e-05,0.000774065038847,0.999999692688
250580000000,-1.98452525544,0.00823340832834,9.80108121683,2.5e-05,2.5e-05,2.5e-05,-0.000320722841716,0.00241731637192,-0.00133157341351,0.0,0.0,0.0,-0.00373586194301,-0.00169208805624,-0.0954883592873,2.5e-05,2.5e-05,2.5e-05,-0.00190006070107,0.00220404401304,0.000536624324907,0.0,0.0,0.0,4.96504948131e-06,0.000122741516197,0.967318579143,-0.253564097132,2.60308204915e-07,2.60308204915e-07,0.0001,-9.95070605415e-05,-7.46764665088e-05,0.000779083085201,0.999999688776
250600000000,-1.91194840222,0.0716644250835,9.78250689671,2.5e-05,2.5e-05,2.5e-05,-0.000320948963243,0.00241885879851,-0.00133737450568,0.0,0.0,0.0,0.000730600206591,-0.00621052452882,-0.157215072851,2.5e-05,2.5e-05,2.5e-05,-0.00190168662551,0.00220404380572,0.000537117177816,0.0,0.0,0.0,1.8734855626e-05,0.000123745440821,0.967713622543,-0.252052234826,2.60308204915e-07,2.60308204915e-07,0.0001,-9.98037853898e-05,-7.4411574608e-05,0.000780704427614,0.999999687501
250620000000,-1.4119522185,0.00872407058298,9.81047458263,2.5e-05,2.5e-05,2.5e-05,-0.000317119172571,0.00241934248183,-0.00133785545483,0.0,0.0,0.0,0.00274598728771,-0.000644597559642,-0.221284486452,2.5e-05,2.5e-05,2.5e-05,-0.00190139876608,0.00220482372397,0.000538697031238,0.0,0.0,0.0,2.67867962206e-05,0.000124703777363,0.968271275435,-0.249901422364,2.60308204915e-07,2.60308204915e-07,0.0001,-0.000100250017119,-7.38070369683e-05,0.000782450509083,0.999999686137
250640000000,0.286633912468,0.0585372714231,9.79224561921,2.5e-05,2.5e-05,2.5e-05,-0.000316465149384,0.0024206806554,-0.00133672055921,0.0,0.0,0.0,-0.00438831070225,-0.00462843377039,-0.319796006306,2.5e-05,2.5e-05,2.5e-05,-0.00190214593734,0.00220492396135,0.000538488082748,0.0,0.0,0.0,2.87479269834e-05,0.000121002222259,0.969047481742,-0.246874386401,2.60308204915e-07,2.60308204915e-07,0.0001,-0.000100785318791,-7.31813504763e-05,0.000789164528805,0.999999680853
250660000000,0.576948736134,0.104782265058,9.80379428789,2.5e-05,2.5e-05,2.5e-05,-0.000316795002862,0.00242347789373,-0.00133640310867,0.0,0.0,0.0,-0.00936175684213,-0.000261528290095,-0.447902963947,2.5e-05,2.5e-05,2.5e-05,-0.0019020932822,0.00220540836009,0.000539705551301,0.0,0.0,0.0,3.64196746042e-05,0.00011357906116,0.97012976057,-0.24258654833,2.60308204915e-07,2.60308204915e-07,0.0001,-0.000101546090295,-7.23676239085e-05,0.00079114735112,0.999999679269
250680000000,0.542583616065,0.24241522992,9.79037656212,2.5e-05,2.5e-05,2.5e-05,-0.000313493020131,0.00242543310496,-0.00133764323581,0.0,0.0,0.0,-0.00465804353405,0.00156551451532,-0.603737182463,2.5e-05,2.5e-05,2.5e-05,-0.00190077902981,0.00220511581843,0.000538902282856,0.0,0.0,0.0,7.80351079259e-05,0.000124441388162,0.971583762477,-0.236695946134,2.60308204915e-07,2.60308204915e-07,0.0001,-0.000102585745909,-7.10208320492e-05,0.000794494661508,0.999999676605
250700000000,1.01366303993,0.288259944599,9.78541411963,2.5e-05,2.5e-05,2.5e-05,-0.000308515811534,0.00242487917126,-0.00133725478407,0.0,0.0,0.0,-0.00195557130947,0.0137385414498,-0.693072933943,2.5e-05,2.5e-05,2.5e-05,-0.00190097686216,0.00220435777168,0.000539165452526,0.0,0.0,0.0,6.53300791336e-05,0.000134637178713,0.973204866029,-0.229939701535,2.60308204915e-07,2.60308204915e-07,0.0001,-0.000103651777144,-6.93510317542e-05,0.000792787364063,0.999999677967
250720000000,1.52411901259,0.123413252324,9.81894950842,2.5e-05,2.5e-05,2.5e-05,-0.000306352603641,0.00241826207858,-0.00134124162835,0.0,0.0,0.0,-0.00714755120255,0.00374785828625,-0.645897847362,2.5e-05,2.5e-05,2.5e-05,-0.00190134800741,0.00220338829519,0.000538910718678,0.0,0.0,0.0,9.54081835563e-05,0.000147462552962,0.974672806979,-0.223635615427,2.60308204915e-07,2.60308204915e-07,0.0001,-0.000104288223064,-6.77527371031e-05,0.000801366413322,0.999999671173
250740000000,1.44591975313,0.148400197566,9.80289010056,2.5e-05,2.5e-05,2.5e-05,-0.00030457640128,0.00242186737414,-0.00133916319094,0.0,0.0,0.0,-0.00212469806327,0.000356436645914,-0.596387687126,2.5e-05,2.5e-05,2.5e-05,-0.00190143334429,0.00220359247195,0.000538853233029,0.0,0.0,0.0,5.81426499404e-05,0.000137458074464,0.975987956412,-0.217824440003,2.60308204915e-07,2.60308204915e-07,0.0001,-0.00010529022792,-6.65069095218e-05,0.000793540658428,0.999999677392
250760000000,1.31180691884,0.077909331544,9.7979385925,2.5e-05,2.5e-05,2.5e-05,-0.000304859530864,0.00242347098465,-0.00134145890538,0.0,0.0,0.0,0.00168335029131,0.00132731418015,-0.536043601965,2.5e-05,2.5e-05,2.5e-05,-0.00190052094703,0.00220208070064,0.000538933522403,0.0,0.0,0.0,6.75941605693e-05,0.000145776452969,0.977144903068,-0.212574251941,2.60308204915e-07,2.60308204915e-07,0.0001,-0.000106069117478,-6.54170718403e-05,0.000793850970438,0.999999677135
250780000000,1.28676005922,0.073703108397,9.7800648221,2.5e-05,2.5e-05,2.5e-05,-0.000306022210251,0.00242381103802,-0.00134468011263,0.0,0.0,0.0,-0.00353386583682,0.000425268528862,-0.474753474244,2.5e-05,2.5e-05,2.5e-05,-0.00189844205813,0.0022044155562,0.000538407747148,0.0,0.0,0.0,7.32759018339e-05,0.00015049071253,0.978154128384,-0.207880910878,2.60308204915e-07,2.60308204915e-07,0.0001,-0.000106684955786,-6.44562964951e-05,0.000794486013103,0.999999676628
250800000000,1.43128748892,0.0814709601043,9.80251296547,2.5e-05,2.5e-05,2.5e-05,-0.000304979708533,0.00242073302977,-0.00134525996152,0.0,0.0,0.0,9.42821882623e-05,0.00726978640302,-0.421096907579,2.5e-05,2.5e-05,2.5e-05,-0.00189772581286,0.00220438430078,0.000538100282998,0.0,0.0,0.0,8.05509198486e-05,0.000155271130376,0.979021521584,-0.203756790505,2.60308204915e-07,2.60308204915e-07,0.0001,-0.000107102483528,-6.34426958378e-05,0.00079481814783,0.999999676384
250820000000,1.21326494535,0.0341635153008,9.80005835547,2.5e-05,2.5e-05,2.5e-05,-0.000300897614251,0.00242168505494,-0.0013440328894,0.0,0.0,0.0,0.00107158019254,0.0010025743526,-0.358507625327,2.5e-05,2.5e-05,2.5e-05,-0.00189725069734,0.00220366128322,0.000536522587233,0.0,0.0,0.0,6.48649882806e-05,0.000152258003405,0.979754097771,-0.200204596626,2.60308204915e-07,2.60308204915e-07,0.0001,-0.000107685447836,-6.24933616726e-05,0.000797491026869,0.999999674253
250840000000,1.41280771572,0.0515257090467,9.79491995534,2.5e-05,2.5e-05,2.5e-05,-0.000301716882444,0.0024182171143,-0.00134131496115,0.0,0.0,0.0,-0.00103629159117,0.00372823395155,-0.310661791688,2.5e-05,2.5e-05,2.5e-05,-0.00189579692501,0.00220377264981,0.000537988717185,0.0,0.0,0.0,4.86096981874e-05,0.000148120890345,0.9803571626,-0.197230346134,2.60308204915e-07,2.60308204915e-07,0.0001,-0.000107882754856,-6.18105011133e-05,0.000802551424627,0.999999670226
250860000000,1.37480789678,0.00901838119347,9.80097210915,2.5e-05,2.5e-05,2.5e-05,-0.00029985614348,0.00242142453918,-0.00134431130843,0.0,0.0,0.0,0.00344757702208,-0.000637463601621,-0.245365477282,2.5e-05,2.5e-05,2.5e-05,-0.00189597926925,0.00220390357186,0.00053709708364,0.0,0.0,0.0,4.3200851622e-05,0.000149200819102,0.98083437185,-0.194843298243,2.60308204915e-07,2.60308204915e-07,0.0001,-0.000108369647165,-6.12604133183e-05,0.000798675493187,0.99999967331
250880000000,1.36704553216,0.00718525526331,9.81058010189,2.5e-05,2.5e-05,2.5e-05,-0.000301787874499,0.00242095666363,-0.00134348458559,0.0,0.0,0.0,0.000708040754429,0.00496674328063,-0.185412762108,2.5e-05,2.5e-05,2.5e-05,-0.00189699380795,0.00220299684227,0.000536202590239,0.0,0.0,0.0,3.85063632007e-05,0.000149912609232,0.981186620928,-0.19306162476,2.60308204915e-07,2.60308204915e-07,0.0001,-0.000108532416281,-6.09486464647e-05,0.000804462975482,0.999999668673
250900000000,1.38724959278,0.00348662590034,9.80124505263,2.5e-05,2.5e-05,2.5e-05,-0.000302149865734,0.00242126340321,-0.00134621760376,0.0,0.0,0.0,-0.00881728443434,0.00370231309358,-0.118435456478,2.5e-05,2.5e-05,2.5e-05,-0.00189626353858,0.00220403771804,0.000535130054404,0.0,0.0,0.0,3.52118409489e-05,0.000150402383613,0.981420745481,-0.191867914146,2.60308204915e-07,2.60308204915e-07,0.0001,-0.000108687898184,-6.07079326791e-05,0.000803923643783,0.999999669104
250920000000,1.38494125734,0.00148839775435,9.79777502687,2.5e-05,2.5e-05,2.5e-05,-0.00030514555545,0.00241739962872,-0.00134995946025,0.0,0.0,0.0,-0.00307542462243,0.00173855983991,-0.0670342205745,2.5e-05,2.5e-05,2.5e-05,-0.00189861799812,0.00220544467365,0.000533152923761,0.0,0.0,0.0,4.05513719613e-05,0.00015216415375,0.981540394274,-0.19125488127,2.60308204915e-07,2.60308204915e-07,0.0001,-0.000108523928648,-6.06394537811e-05,0.00080209693995,0.999999670593
250940000000,1.39174462316,0.00798974332981,9.80650702344,2.5e-05,2.5e-05,2.5e-05,-0.000304845814556,0.00241557952403,-0.00134906552574,0.0,0.0,0.0,-0.00189653792335,-0.00268981681854,-0.00372862075001,2.5e-05,2.5e-05,2.5e-05,-0.00189795584847,0.00220429283281,0.000534086793839,0.0,0.0,0.0,5.11466099734e-05,0.000154048892632,0.981544976483,-0.191231359336,2.60308204915e-07,2.60308204915e-07,0.0001,-0.000108447355252,-6.0583286045e-05,0.000807880282462,0.999999665949
250960000000,1.45617639239,-0.00181265421791,9.79357753501,2.5e-05,2.5e-05,2.5e-05,-0.000303346163914,0.00241537802187,-0.0013477526213,0.0,0.0,0.0,0.00123122309708,0.00492510892556,0.0554674595362,2.5e-05,2.5e-05,2.5e-05,-0.00189795726803,0.00220341511414,0.000533728456415,0.0,0.0,0.0,6.80097442579e-05,0.000156519685043,0.981436518124,-0.191787204391,2.60308204915e-07,2.60308204915e-07,0.0001,-0.000108398729217,-6.06289656458e-05,0.00080919846472,0.999999664886
250980000000,-0.265850929476,0.0809875703295,9.81207903735,2.5e-05,2.5e-05,2.5e-05,-0.000305526971377,0.00241665210596,-0.00134725796463,0.0,0.0,0.0,0.00206526822125,0.00539678554807,0.174433667978,2.5e-05,2.5e-05,2.5e-05,-0.00189822991095,0.00220216690479,0.000531438405059,0.0,0.0,0.0,5.18807209215e-05,0.000158171241695,0.981117535749,-0.19341239189,2.60308204915e-07,2.60308204915e-07,0.0001,-0.000108215377238,-6.11169778379e-05,0.000813625575667,0.999999661284
251000000000,-0.799178071618,0.0426523565357,9.80368579112,2.5e-05,2.5e-05,2.5e-05,-0.000302937275033,0.00241680540187,-0.00134617767122,0.0,0.0,0.0,-0.00300267753117,0.010519037785,0.364029774787,2.5e-05,2.5e-05,2.5e-05,-0.00189727832281,0.00220200085971,0.00053024734802,0.0,0.0,0.0,2.80253054816e-05,0.00015731138457,0.980406596531,-0.196984466257,2.60308204915e-07,2.60308204915e-07,0.0001,-0.000107824690925,-6.17878441098e-05,0.000813695649118,0.999999661228
251020000000,-0.779744774602,0.0289974303514,9.80153406199,2.5e-05,2.5e-05,2.5e-05,-0.000299365444541,0.0024131945671,-0.00134571840739,0.0,0.0,0.0,-0.0036555081545,0.00835065071484,0.572440815955,2.5e-05,2.5e-05,2.5e-05,-0.00189801601195,0.00220136893451,0.000528994185486,0.0,0.0,0.0,5.8570468938e-05,0.000168486572677,0.979261802996,-0.202598838533,2.60308204915e-07,2.60308204915e-07,0.0001,-0.00010701503802,-6.27750330747e-05,0.000815503042263,0.999999659781
251040000000,-0.751693059483,0.0848260466556,9.79652206122,2.5e-05,2.5e-05,2.5e-05,-0.000299670755014,0.00240996548707,-0.00133897950956,0.0,0.0,0.0,-0.000328031595775,0.00168866335612,0.776514392817,2.5e-05,2.5e-05,2.5e-05,-0.00189872046459,0.0022021991734,0.000529868402142,0.0,0.0,0.0,8.19749106495e-05,0.000174910797872,0.977667322464,-0.210158438499,2.60308204915e-07,2.60308204915e-07,0.0001,-0.000105877135955,-6.43646377357e-05,0.000815364997058,0.999999659914
251060000000,-1.68443629482,0.0110923217901,9.80378374263,2.5e-05,2.5e-05,2.5e-05,-0.000300934067666,0.00240870430253,-0.00133822478736,0.0,0.0,0.0,-0.000517134037234,0.00371215818154,0.893153055556,2.5e-05,2.5e-05,2.5e-05,-0.00189840510643,0.00220031450406,0.000529268929263,0.0,0.0,0.0,5.03667746764e-05,0.000165158765318,0.975764778145,-0.218822000533,2.60308204915e-07,2.60308204915e-07,0.0001,-0.000104630349244,-6.62678581784e-05,0.00080953990071,0.999999664653
251080000000,-2.32230366228,0.0677565704854,9.80681401704,2.5e-05,2.5e-05,2.5e-05,-0.000303096476063,0.0024056732795,-0.00133907977506,0.0,0.0,0.0,-0.00134522160158,0.011438593419,0.804633654659,2.5e-05,2.5e-05,2.5e-05,-0.00189852908667,0.00220230213028,0.000527914476101,0.0,0.0,0.0,4.7654297462e-05,0.00015471824316,0.97397262726,-0.226665602022,2.60308204915e-07,2.60308204915e-07,0.0001,-0.000103361400523,-6.79738759185e-05,0.000806552245424,0.999999667085
251100000000,-2.37243705951,0.0111215330016,9.78944485611,2.5e-05,2.5e-05,2.5e-05,-0.000303658853716,0.00240874266298,-0.00133557181721,0.0,0.0,0.0,-0.00447501310089,-0.00113556809614,0.71188733934,2.5e-05,2.5e-05,2.5e-05,-0.00189776174117,0.00220114572895,0.000527932178357,0.0,0.0,0.0,1.10137048385e-05,0.000139012349404,0.972344151816,-0.233552630009,2.60308204915e-07,2.60308204915e-07,0.0001,-0.000102512049947,-6.9531092158e-05,0.000803593334819,0.999999669447
251120000000,-2.50040801929,-0.0810301523495,9.80205264008,2.5e-05,2.5e-05,2.5e-05,-0.000303630122236,0.00240806419469,-0.00133895684642,0.0,0.0,0.0,-0.00141957045466,0.00866155977944,0.619950942353,2.5e-05,2.5e-05,2.5e-05,-0.00189839336781,0.0022009406052,0.000529005521742,0.0,0.0,0.0,-1.23341213834e-05,0.000134880376273,0.970881864562,-0.239558733339,2.60308204915e-07,2.60308204915e-07,0.0001,-0.000101614038983,-7.07776079285e-05,0.000813071570485,0.99999966179
251135000000,-2.40270465019,-0.075343080665,9.79329691299,2.5e-05,2.5e-05,2.5e-05,-0.00030314436089,0.00241072450695,-0.00134243099412,0.0,0.0,0.0,-0.00757711861823,0.00679998649324,0.538725374522,2.5e-05,2.5e-05,2.5e-05,-0.00190002809186,0.00220222526438,0.000528399503651,0.0,0.0,0.0,-3.16132337637e-05,0.000121488617613,0.969605377082,-0.244674062735,2.60308204915e-07,2.60308204915e-07,0.0001,-0.000100990524708,-7.18902227695e-05,0.000806857908704,0.999999666806
251160000000,-2.42572768621,-0.0784132190548,9.80262536753,2.5e-05,2.5e-05,2.5e-05,-0.000305505523238,0.0024107661979,-0.00134062051525,0.0,0.0,0.0,-0.00469074563121,0.00387739092123,0.451482029338,2.5e-05,2.5e-05,2.5e-05,-0.00190071182274,0.00220233658527,0.000529105810414,0.0,0.0,0.0,-4.24047484033e-05,0.000110731013064,0.968506057446,-0.24898996492,2.60308204915e-07,2.60308204915e-07,0.0001,-0.000100288293374,-7.28944789681e-05,0.000807177512802,0.999999666547
251180000000,-2.42010991278,-0.0830010035186,9.79214934545,2.5e-05,2.5e-05,2.5e-05,-0.000304184069274,0.00241312849122,-0.00134150806913,0.0,0.0,0.0,0.00262177069532,-0.00079932829238,0.365846780034,2.5e-05,2.5e-05,2.5e-05,-0.00190046587723,0.00220241135337,0.000530759694262,0.0,0.0,0.0,-4.55189445276e-05,0.000103996984634,0.96758818652,-0.252533341202,2.60308204915e-07,2.60308204915e-07,0.0001,-9.98896651695e-05,-7.36260172031e-05,0.000814957240235,0.999999660223
251200000000,-2.38268745437,-0.0890351431601,9.79876159883,2.5e-05,2.5e-05,2.5e-05,-0.000300729690251,0.00241352488452,-0.00134231599754,0.0,0.0,0.0,-0.00399425066602,0.00949853205627,0.284837293554,2.5e-05,2.5e-05,2.5e-05,-0.00190029609517,0.00220347687787,0.00053249116632,0.0,0.0,0.0,-4.39135879495e-05,0.000100173561335,0.966861513706,-0.255301393162,2.60308204915e-07,2.60308204915e-07,0.0001,-9.95699459722e-05,-7.4053774493e-05,0.00080531739823,0.999999668033
251220000000,-2.45403556624,-0.0734158379426,9.79893650947,2.5e-05,2.5e-05,2.5e-05,-0.000301632277526,0.00241192284941,-0.00133863771514,0.0,0.0,0.0,-0.0108932450359,-0.00339014616719,0.203729986477,2.5e-05,2.5e-05,2.5e-05,-0.00190002605681,0.00220338245966,0.000533965800174,0.0,0.0,0.0,-2.84042020789e-05,0.000101646121089,0.966322261394,-0.257334949035,2.60308204915e-07,2.60308204915e-07,0.0001,-9.91653579956e-05,-7.44682016577e-05,0.000817754353196,0.999999657949
251240000000,-1.88065314186,-0.0712340714617,9.78364805185,2.5e-05,2.5e-05,2.5e-05,-0.000303656170559,0.00241182913385,-0.00134283777316,0.0,0.0,0.0,0.00267480553542,-0.00744945833299,0.130188982684,2.5e-05,2.5e-05,2.5e-05,-0.00190047022378,0.0022030294938,0.000536153706606,0.0,0.0,0.0,-2.65729139437e-06,0.000110968414225,0.965984002697,-0.258601806283,2.60308204915e-07,2.60308204915e-07,0.0001,-9.89161965861e-05,-7.48120283592e-05,0.000817408112836,0.999999658231
251260000000,0.357984733766,-0.0438278394812,9.80199618306,2.5e-05,2.5e-05,2.5e-05,-0.000306755104848,0.00241106982112,-0.00134645625368,0.0,0.0,0.0,-0.00348546956149,-0.00471848059821,-0.0163844935585,2.5e-05,2.5e-05,2.5e-05,-0.00190067751059,0.0022018008406,0.000536907218995,0.0,0.0,0.0,1.27592186814e-05,0.000113190982079,0.965998996971,-0.258545788741,2.60308204915e-07,2.60308204915e-07,0.0001,-9.88134624346e-05,-7.49160402098e-05,0.000819719498738,0.999999656342
251280000000,0.404027105306,0.0702243132216,9.80378943593,2.5e-05,2.5e-05,2.5e-05,-0.000310636744288,0.00241570980896,-0.00134577513627,0.0,0.0,0.0,-0.00519097591052,-0.00752392156969,-0.167936611788,2.5e-05,2.5e-05,2.5e-05,-0.00189993899146,0.00220163561697,0.000536620122773,0.0,0.0,0.0,1.31653782909e-05,0.000113544662399,0.96642968951,-0.256931201234,2.60308204915e-07,2.60308204915e-07,0.0001,-9.9171054422e-05,-7.48742224525e-05,0.000824540699055,0.999999652346
251300000000,0.359661915448,0.126451294874,9.79070547356,2.5e-05,2.5e-05,2.5e-05,-0.000317303734105,0.00241604278645,-0.00134563345464,0.0,0.0,0.0,0.00276502113503,-0.0019372308586,-0.330536451083,2.5e-05,2.5e-05,2.5e-05,-0.00189990064143,0.00220005102842,0.000537177898832,0.0,0.0,0.0,2.61232592787e-05,0.000114939594425,0.967273586278,-0.253735680178,2.60308204915e-07,2.60308204915e-07,0.0001,-9.95128489151e-05,-7.45198076843e-05,0.00082859670622,0.999999648986
251320000000,0.543929649127,0.140192798559,9.79263794044,2.5e-05,2.5e-05,2.5e-05,-0.000319002051725,0.00241134200134,-0.0013454172773,0.0,0.0,0.0,0.00020462734184,0.00620630787091,-0.454495066939,2.5e-05,2.5e-05,2.5e-05,-0.00190077843461,0.00220057662266,0.000537728228344,0.0,0.0,0.0,4.07622488951e-05,0.000120653843654,0.96840222773,-0.249393482492,2.60308204915e-07,2.60308204915e-07,0.0001,-9.99267306107e-05,-7.35826853724e-05,0.0008262840292,0.999999650927
251340000000,0.561706623999,0.265565042729,9.80501625508,2.5e-05,2.5e-05,2.5e-05,-0.000319952272198,0.00241157156631,-0.00134641712005,0.0,0.0,0.0,0.00490830322633,-5.41456858517e-05,-0.591217442139,2.5e-05,2.5e-05,2.5e-05,-0.00190177099686,0.00220041580187,0.000538877756588,0.0,0.0,0.0,4.155867832e-05,0.000122200957751,0.969871916213,-0.243615372012,2.60308204915e-07,2.60308204915e-07,0.0001,-0.000100784632763,-7.24343614263e-05,0.000825093897454,0.999999651908
251360000000,-1.82257932048,0.248454743192,9.82025559366,2.5e-05,2.5e-05,2.5e-05,-0.000314881205813,0.00240946845331,-0.00134513902049,0.0,0.0,0.0,-0.000193175563827,0.0174668788845,-0.724810470509,2.5e-05,2.5e-05,2.5e-05,-0.0019024321288,0.00219922950663,0.000539655888048,0.0,0.0,0.0,2.52027769344e-05,0.000119521926343,0.971626840279,-0.236519065466,2.60308204915e-07,2.60308204915e-07,0.0001,-0.00010185531034,-7.067637409e-05,0.000824719720395,0.999999652234
251380000000,-2.50246634668,0.248433566926,9.79671860209,2.5e-05,2.5e-05,2.5e-05,-0.000311913317075,0.00240866806371,-0.00134871105207,0.0,0.0,0.0,0.00207207023864,0.000681914517429,-0.811773588713,2.5e-05,2.5e-05,2.5e-05,-0.00190143813933,0.00219876753503,0.000542062879383,0.0,0.0,0.0,2.26340520474e-05,0.000120039578799,0.973510643444,-0.228641667638,2.60308204915e-07,2.60308204915e-07,0.0001,-0.000103017529163,-6.88638554199e-05,0.00082524638794,0.999999651807
251400000000,-2.4497582799,0.4155784344,9.78841151074,2.5e-05,2.5e-05,2.5e-05,-0.000310458746624,0.00240949466723,-0.00134697532469,0.0,0.0,0.0,0.00108383540249,-0.00240076354666,-0.890313637856,2.5e-05,2.5e-05,2.5e-05,-0.0019020946232,0.00219948685549,0.000542639677497,0.0,0.0,0.0,6.57093158611e-05,0.0001312728104,0.975509259763,-0.219958320068,2.60308204915e-07,2.60308204915e-07,0.0001,-0.000104300968026,-6.69629551452e-05,0.000824715594607,0.999999652241
251420000000,-1.86750220061,0.703567109094,9.79808268828,2.5e-05,2.5e-05,2.5e-05,-0.000309852236085,0.00240595638,-0.00135004594097,0.0,0.0,0.0,-0.00394241758016,-0.000623931355348,-0.981696363755,2.5e-05,2.5e-05,2.5e-05,-0.00190119769444,0.00219982738414,0.000542441255262,0.0,0.0,0.0,3.73574482524e-05,0.000133965726853,0.97762056047,-0.21037590262,2.60308204915e-07,2.60308204915e-07,0.0001,-0.000105442513089,-6.4805278839e-05,0.00082266224954,0.999999653954
251440000000,-1.82492764574,0.300086558615,9.80303129506,2.5e-05,2.5e-05,2.5e-05,-0.000306868752312,0.00241069833476,-0.0013528863837,0.0,0.0,0.0,-0.00659403030609,-0.00168411502936,-1.00634695845,2.5e-05,2.5e-05,2.5e-05,-0.00190280556118,0.00220071854515,0.000542365035121,0.0,0.0,0.0,3.2262631335e-05,0.000134167745072,0.979696202839,-0.200487733045,2.60308204915e-07,2.60308204915e-07,0.0001,-0.00010701187553,-6.26183458751e-05,0.000811679815142,0.999999662902
251460000000,-2.01294623696,0.437740933307,9.78911502076,2.5e-05,2.5e-05,2.5e-05,-0.000302978017785,0.00241069614701,-0.00135446618788,0.0,0.0,0.0,-0.00318529756479,0.00324580489764,-1.09259331189,2.5e-05,2.5e-05,2.5e-05,-0.00190153137841,0.00219948901457,0.000543067456245,0.0,0.0,0.0,3.2472702989e-05,0.000120392742798,0.981814961386,-0.189840369915,2.60308204915e-07,2.60308204915e-07,0.0001,-0.000108418240667,-6.00954311573e-05,0.000815275237942,0.99999965998
251480000000,-1.4082729258,0.698555871877,9.79449789579,2.5e-05,2.5e-05,2.5e-05,-0.000300143733451,0.00240658964844,-0.00135136444337,0.0,0.0,0.0,-0.00861871742236,-0.00115654635675,-1.18222600081,2.5e-05,2.5e-05,2.5e-05,-0.00190237783623,0.00219888042518,0.000543070234784,0.0,0.0,0.0,5.30271107764e-05,0.000118040779593,0.983986317635,-0.178243961924,2.60308204915e-07,2.60308204915e-07,0.0001,-0.000109660080984,-5.73101376833e-05,0.000807764090108,0.999999666104
251500000000,1.11218512736,0.766909365762,9.80229412077,2.5e-05,2.5e-05,2.5e-05,-0.000299670887401,0.00240528527271,-0.00135261324494,0.0,0.0,0.0,0.00294912501211,-0.00260264097975,-1.24385016909,2.5e-05,2.5e-05,2.5e-05,-0.00190278425494,0.00219910026238,0.00054458277211,0.0,0.0,0.0,4.40499993044e-05,0.000114895961852,0.986133640305,-0.165953090716,2.60308204915e-07,2.60308204915e-07,0.0001,-0.000110999984135,-5.45136303712e-05,0.000801373784482,0.999999671254
251520000000,0.955835680816,0.65897701691,9.79113055779,2.5e-05,2.5e-05,2.5e-05,-0.000296724576597,0.00240497940693,-0.00134926626071,0.0,0.0,0.0,-0.00447565910667,0.00629731513525,-1.32547845728,2.5e-05,2.5e-05,2.5e-05,-0.00190243267301,0.00219749052086,0.000545486701042,0.0,0.0,0.0,4.82245238944e-05,0.000117976326018,0.988241298796,-0.152902318853,2.60308204915e-07,2.60308204915e-07,0.0001,-0.000112433283195,-5.14119393893e-05,0.000800281419566,0.999999672133
251540000000,0.62756509473,1.12355815618,9.79535280791,2.5e-05,2.5e-05,2.5e-05,-0.000298470365385,0.00240384604175,-0.00134889456701,0.0,0.0,0.0,-0.00147811565533,0.00511522017274,-1.4308283438,2.5e-05,2.5e-05,2.5e-05,-0.00190225198185,0.00219806417307,0.000543860724066,0.0,0.0,0.0,5.00516216542e-05,0.000133126596342,0.99031851839,-0.138813586891,2.60308204915e-07,2.60308204915e-07,0.0001,-0.000113774197242,-4.82586747607e-05,0.000805227026508,0.999999668168
251560000000,-0.927704738446,0.876503338587,9.79985096434,2.5e-05,2.5e-05,2.5e-05,-0.000295999700691,0.00240331166558,-0.00135215724052,0.0,0.0,0.0,0.00338424624068,0.0060992266194,-1.29656718587,2.5e-05,2.5e-05,2.5e-05,-0.00190322117907,0.00219825625009,0.000544011533477,0.0,0.0,0.0,3.04476142345e-05,0.000148066430472,0.992041063075,-0.125914678743,2.60308204915e-07,2.60308204915e-07,0.0001,-0.000114998091535,-4.5156335254e-05,0.000800305842323,0.999999672123
251580000000,-1.02895785484,0.696123001384,9.79101703461,2.5e-05,2.5e-05,2.5e-05,-0.000292537207117,0.00240282888756,-0.00134793339619,0.0,0.0,0.0,0.011144268263,0.00131827382303,-1.11015092811,2.5e-05,2.5e-05,2.5e-05,-0.00190318803323,0.00219809586198,0.000545130999484,0.0,0.0,0.0,1.06018475438e-05,0.000157208440145,0.993372459901,-0.114939684546,2.60308204915e-07,2.60308204915e-07,0.0001,-0.00011598545742,-4.24284355229e-05,0.000798993991586,0.999999673178
251600000000,-1.10188140573,0.592392382211,9.79568219119,2.5e-05,2.5e-05,2.5e-05,-0.000298139450824,0.00240243317609,-0.00134574760611,0.0,0.0,0.0,-0.00255066707129,0.00723786771657,-0.911460219984,2.5e-05,2.5e-05,2.5e-05,-0.00190093517941,0.00219923358331,0.000546133238983,0.0,0.0,0.0,-1.15118288206e-05,0.000162562165578,0.994382343925,-0.105847661907,2.60308204915e-07,2.60308204915e-07,0.0001,-0.000116662925665,-4.05780817459e-05,0.00079736735348,0.999999674474
251620000000,-1.74719923829,0.548753739587,9.80133970415,2.5e-05,2.5e-05,2.5e-05,-0.000292020453758,0.00240033085788,-0.001347625203,0.0,0.0,0.0,-0.0051392659139,-0.00963483445889,-0.879216680525,2.5e-05,2.5e-05,2.5e-05,-0.00190013748675,0.00220115611954,0.000548001045656,0.0,0.0,0.0,5.6984597881e-05,0.000152933560723,0.995269534019,-0.0971520870437,2.60308204915e-07,2.60308204915e-07,0.0001,-0.000117308851574,-3.81963531094e-05,0.000796681284188,0.999999675039
251640000000,-1.7647854468,0.436973130394,9.8018397449,2.5e-05,2.5e-05,2.5e-05,-0.000291044375438,0.00240100147144,-0.00134575104692,0.0,0.0,0.0,-0.00440951398373,0.00322398701524,-1.00085381491,2.5e-05,2.5e-05,2.5e-05,-0.00190078416819,0.00220199399066,0.000548800444315,0.0,0.0,0.0,3.72064049202e-05,0.000147055989536,0.996195638963,-0.0871448558489,2.60308204915e-07,2.60308204915e-07,0.0001,-0.000118093893342,-3.5791530074e-05,0.000788947141,0.999999681168
251660000000,-1.66453955528,0.787465455255,9.79974973603,2.5e-05,2.5e-05,2.5e-05,-0.000290647861465,0.00239863687583,-0.00134355487761,0.0,0.0,0.0,0.00239784888273,-0.00445516670098,-1.13628535216,2.5e-05,2.5e-05,2.5e-05,-0.00190222480808,0.00220202170467,0.000548985262293,0.0,0.0,0.0,3.24835937803e-05,0.000145506785862,0.99712850019,-0.075728012528,2.60308204915e-07,2.60308204915e-07,0.0001,-0.000118766316353,-3.30398013584e-05,0.000787340481534,0.999999682449
251680000000,-1.41213229544,0.978145122443,9.80930258077,2.5e-05,2.5e-05,2.5e-05,-0.000289267752052,0.00239950453826,-0.00134606476575,0.0,0.0,0.0,0.00170877966138,0.00234324784984,-1.28908643022,2.5e-05,2.5e-05,2.5e-05,-0.0019029454323,0.00220179909528,0.000548814963173,0.0,0.0,0.0,4.56683911982e-05,0.000151209453412,0.998023799024,-0.0628368652257,2.60308204915e-07,2.60308204915e-07,0.0001,-0.000119634103467,-2.9893762775e-05,0.000787606494323,0.999999682235
251700000000,0.937090115497,1.18141655338,9.78885258786,2.5e-05,2.5e-05,2.5e-05,-0.000293805571688,0.00240139832264,-0.00134550578754,0.0,0.0,0.0,0.00386219781514,0.00528870989168,-1.41969890778,2.5e-05,2.5e-05,2.5e-05,-0.00190231734163,0.00220227325122,0.000549684000223,0.0,0.0,0.0,3.17494090462e-05,0.000160679587126,0.998819360772,-0.0485783668079,2.60308204915e-07,2.60308204915e-07,0.0001,-0.000120514125961,-2.67072690332e-05,0.000786057504781,0.999999683438
251720000000,1.21888023505,1.15388298067,9.80644212291,2.5e-05,2.5e-05,2.5e-05,-0.000294017078312,0.00240332617981,-0.00134022642033,0.0,0.0,0.0,-0.00253405019829,0.000585809690244,-1.51197019451,2.5e-05,2.5e-05,2.5e-05,-0.00190230166182,0.00220334987681,0.000547301829828,0.0,0.0,0.0,1.29303050954e-05,0.000170918155736,0.999439099087,-0.0334881745571,2.60308204915e-07,2.60308204915e-07,0.0001,-0.000121364529651,-2.30755717969e-05,0.000786510237262,0.99999968307
251740000000,1.02408451124,1.36380580022,9.82143715046,2.5e-05,2.5e-05,2.5e-05,-0.000295227151677,0.00240409912524,-0.00133979253045,0.0,0.0,0.0,-0.00469397419184,4.39408878601e-05,-1.6183552662,2.5e-05,2.5e-05,2.5e-05,-0.00190194390381,0.00220203698529,0.000546139073909,0.0,0.0,0.0,2.971106848e-05,0.000178387335853,0.999849921791,-0.017323428921,2.60308204915e-07,2.60308204915e-07,0.0001,-0.000122085574509,-1.92005742138e-05,0.000784750922392,0.999999684446
251760000000,-1.35016053643,1.26707010774,9.79610467293,2.5e-05,2.5e-05,2.5e-05,-0.000298292546795,0.00240194275002,-0.00133782789339,0.0,0.0,0.0,5.90500575878e-05,0.00945886390687,-1.57118235591,2.5e-05,2.5e-05,2.5e-05,-0.00190231309832,0.00220212563796,0.000544597473071,0.0,0.0,0.0,1.7883515804e-05,0.000192360075385,0.999998596816,-0.00166404425503,2.60308204915e-07,2.60308204915e-07,0.0001,-0.00012251853021,-1.55261037864e-05,0.000784746346552,0.999999684461
251780000000,-1.51229460956,0.835424930083,9.79861057787,2.5e-05,2.5e-05,2.5e-05,-0.000296034742972,0.00240204257091,-0.00133673480411,0.0,0.0,0.0,0.00491334623808,0.00496279984714,-1.42570625406,2.5e-05,2.5e-05,2.5e-05,-0.00190221113952,0.00220314496703,0.000545004429389,0.0,0.0,0.0,2.76711253746e-05,0.000188990808173,0.99991914354,0.012714947878,2.60308204915e-07,2.60308204915e-07,0.0001,-0.000122915892776,-1.18810325046e-05,0.000780243439721,0.999999687985
251800000000,-1.63011363569,1.10833041035,9.77589077587,2.5e-05,2.5e-05,2.5e-05,-0.000297739100708,0.0024002088624,-0.00133909224399,0.0,0.0,0.0,-0.0123003966917,0.00158464523116,-1.32027442588,2.5e-05,2.5e-05,2.5e-05,-0.00190162260753,0.00220261413423,0.000546438409256,0.0,0.0,0.0,1.55856985983e-05,0.00020135284807,0.999663297772,0.0259470673168,2.60308204915e-07,2.60308204915e-07,0.0001,-0.000123100301754,-8.71678262596e-06,0.000785482910015,0.999999683893
251820000000,-1.63253393474,0.997897962226,9.77975683072,2.5e-05,2.5e-05,2.5e-05,-0.000300774436574,0.00239941615477,-0.00133935654456,0.0,0.0,0.0,-0.00763928061129,0.000784344559677,-1.20855365584,2.5e-05,2.5e-05,2.5e-05,-0.00190276667272,0.00220337249095,0.000545216429404,0.0,0.0,0.0,2.38975623906e-05,0.000201782597239,0.999277821286,0.0379972972497,2.60308204915e-07,2.60308204915e-07,0.0001,-0.000123246302049,-5.90287929192e-06,0.000785718431971,0.999999683711
251840000000,-1.41390378334,0.696068279165,9.79499554911,2.5e-05,2.5e-05,2.5e-05,-0.000305770174754,0.00240012599702,-0.00133794665214,0.0,0.0,0.0,0.00538696291415,-0.00310130733931,-1.13305338422,2.5e-05,2.5e-05,2.5e-05,-0.00190334522066,0.00220325249055,0.000545565403387,0.0,0.0,0.0,3.13274014621e-05,0.000191756388513,0.998780328829,0.0493742543461,2.60308204915e-07,2.60308204915e-07,0.0001,-0.000123408747891,-3.34441194484e-06,0.000781735286018,0.999999686824
251860000000,-1.17066883547,0.997898220346,9.79675200264,2.5e-05,2.5e-05,2.5e-05,-0.000304898035226,0.0023978259965,-0.00133573532111,0.0,0.0,0.0,-0.000848103357766,0.00345214446632,-1.23521080161,2.5e-05,2.5e-05,2.5e-05,-0.00190480959853,0.00220420054074,0.000544795387011,0.0,0.0,0.0,2.67473888734e-05,0.000182417243261,0.998091416734,0.061753460232,2.60308204915e-07,2.60308204915e-07,0.0001,-0.00012333061693,-2.54946019924e-07,0.000782050268864,0.999999686593
251880000000,-0.867227964385,1.29038615746,9.80315964384,2.5e-05,2.5e-05,2.5e-05,-0.000304449242119,0.00239448366568,-0.00133547989452,0.0,0.0,0.0,0.00130770943463,-0.00740374895622,-1.42212780812,2.5e-05,2.5e-05,2.5e-05,-0.00190442556056,0.0022033581695,0.000545356892572,0.0,0.0,0.0,4.11262965804e-05,0.00017950415531,0.99711194106,0.075945658743,2.60308204915e-07,2.60308204915e-07,0.0001,-0.000123115484645,3.25198208912e-06,0.000782296880503,0.999999686422
251900000000,1.04291581748,1.58991761736,9.78791909458,2.5e-05,2.5e-05,2.5e-05,-0.000304346675648,0.0023902084002,-0.0013297285789,0.0,0.0,0.0,-0.00384014324131,-0.00156379870935,-1.56727945659,2.5e-05,2.5e-05,2.5e-05,-0.00190402390254,0.00220382622964,0.000545917328334,0.0,0.0,0.0,8.46773338209e-05,0.000176778647925,0.99580129908,0.0915408888405,2.60308204915e-07,2.60308204915e-07,0.0001,-0.000122737226941,7.07390892755e-06,0.000781350272741,0.999999687189
251920000000,1.44716347076,1.36579346734,9.79608917419,2.5e-05,2.5e-05,2.5e-05,-0.000302799417151,0.00239029356487,-0.001327019716,0.0,0.0,0.0,-0.00199371978716,0.00128330230228,-1.61398480021,2.5e-05,2.5e-05,2.5e-05,-0.00190418032426,0.00220406337354,0.000545913137647,0.0,0.0,0.0,7.62566304982e-05,0.000177803701011,0.994195880216,0.107584916844,2.60308204915e-07,2.60308204915e-07,0.0001,-0.000122433168743,1.1103439935e-05,0.000775370089436,0.999999691844
251940000000,1.36891239721,1.58461506835,9.80378574503,2.5e-05,2.5e-05,2.5e-05,-0.000301659588153,0.00238988168826,-0.00132948122509,0.0,0.0,0.0,-0.0103994987834,0.00795558110995,-1.67891309253,2.5e-05,2.5e-05,2.5e-05,-0.00190321006758,0.00220313710411,0.000544956572037,0.0,0.0,0.0,8.41520049119e-05,0.000174228003948,0.992249759296,0.124259316512,2.60308204915e-07,2.60308204915e-07,0.0001,-0.000121956276988,1.52592378766e-05,0.000777645931496,0.99999969008
251960000000,-0.714448739992,1.17639600881,9.81540522236,2.5e-05,2.5e-05,2.5e-05,-0.000299433105757,0.00239443504649,-0.00132991999335,0.0,0.0,0.0,-0.00431300712786,0.00716198801804,-1.60974737943,2.5e-05,2.5e-05,2.5e-05,-0.00190360028097,0.00220440506799,0.000545859556048,0.0,0.0,0.0,6.38290223954e-05,0.000172672639052,0.990102346143,0.14034710639,2.60308204915e-07,2.60308204915e-07,0.0001,-0.000121588722893,1.93795045657e-05,0.000773012549022,0.999999693646
251980000000,-2.06969904425,1.11329473924,9.78906653467,2.5e-05,2.5e-05,2.5e-05,-0.00029777201907,0.00239250001135,-0.00132930095226,0.0,0.0,0.0,0.00453527120621,0.0122908201164,-1.49199483815,2.5e-05,2.5e-05,2.5e-05,-0.00190465450135,0.00220436381843,0.000546767051318,0.0,0.0,0.0,3.08258783605e-05,0.000175225144436,0.987897582857,0.155107492186,2.60308204915e-07,2.60308204915e-07,0.0001,-0.00012083722655,2.30463706201e-05,0.000782669747445,0.999999686148
252000000000,-2.16811520907,1.07290395198,9.81117418769,2.5e-05,2.5e-05,2.5e-05,-0.000296054935287,0.00239170571509,-0.00133218296968,0.0,0.0,0.0,-0.00909896186423,-0.00152126401566,-1.36486399729,2.5e-05,2.5e-05,2.5e-05,-0.00190575900208,0.00220419863045,0.000546756006626,0.0,0.0,0.0,3.62595523364e-05,0.000176220927113,0.985688274443,0.168578151778,2.60308204915e-07,2.60308204915e-07,0.0001,-0.000120095838747,2.64059046586e-05,0.000782250712133,0.999999686482
252020000000,-2.18597598447,1.1030995186,9.80660195092,2.5e-05,2.5e-05,2.5e-05,-0.000294841135672,0.00239507544773,-0.00133146681598,0.0,0.0,0.0,-0.00141144479815,0.00233049260064,-1.23948495224,2.5e-05,2.5e-05,2.5e-05,-0.00190576700414,0.0022038929352,0.000544810194877,0.0,0.0,0.0,4.49697192789e-05,0.000176136684829,0.983511342755,0.180846359175,2.60308204915e-07,2.60308204915e-07,0.0001,-0.000119538917786,2.95105550231e-05,0.000785435511581,0.999999683965
252040000000,-2.19853026627,1.12396419273,9.79100695025,2.5e-05,2.5e-05,2.5e-05,-0.000295890447068,0.00239748891085,-0.00133037882131,0.0,0.0,0.0,-0.000949178763386,0.00131560793639,-1.13002791223,2.5e-05,2.5e-05,2.5e-05,-0.00190614468277,0.00220347487056,0.000544953975149,0.0,0.0,0.0,5.26609490386e-05,0.000175675839657,0.981393490818,0.192007246072,2.60308204915e-07,2.60308204915e-07,0.0001,-0.000118971619012,3.22166628468e-05,0.00078821051913,0.999999681766
252060000000,-2.13787269637,1.11081780487,9.78914329626,2.5e-05,2.5e-05,2.5e-05,-0.000292649481977,0.00239607801533,-0.00133267003154,0.0,0.0,0.0,-0.0114342579082,0.00838145365838,-1.03284864561,2.5e-05,2.5e-05,2.5e-05,-0.00190710929556,0.00220177117588,0.000543521726748,0.0,0.0,0.0,3.90340051112e-05,0.000177875556569,0.979350919724,0.202167610841,2.60308204915e-07,2.60308204915e-07,0.0001,-0.000118147426815,3.47969929435e-05,0.00078999324682,0.99999968037
252080000000,-2.20212444381,0.99403551866,9.79680004157,2.5e-05,2.5e-05,2.5e-05,-0.000287390254598,0.00239905989758,-0.00133229640555,0.0,0.0,0.0,-0.000437823041743,-0.00538457655707,-0.937870978435,2.5e-05,2.5e-05,2.5e-05,-0.00190597856786,0.00220314310299,0.000544092075843,0.0,0.0,0.0,4.53492911683e-05,0.000180961156246,0.977408827859,0.211357394999,2.60308204915e-07,2.60308204915e-07,0.0001,-0.00011750047545,3.73187896719e-05,0.000795880089295,0.999999675688
252100000000,-1.2647812029,0.996419675615,9.79754691861,2.5e-05,2.5e-05,2.5e-05,-0.000283149328963,0.00239849352416,-0.0013339050027,0.0,0.0,0.0,-0.00334262348378,0.00261243666381,-0.840695146375,2.5e-05,2.5e-05,2.5e-05,-0.00190640732396,0.00220347104068,0.000544202765338,0.0,0.0,0.0,8.78277107199e-05,0.000166179638991,0.975607386092,0.219522647745,2.60308204915e-07,2.60308204915e-07,0.0001,-0.000116738000835,3.9466297834e-05,0.000794083507575,0.999999677123
252120000000,0.339985411402,0.916300978035,9.78925727732,2.5e-05,2.5e-05,2.5e-05,-0.000281383647578,0.00240364500506,-0.00133538050938,0.0,0.0,0.0,-0.00480195261575,0.00329384197484,-0.703969412895,2.5e-05,2.5e-05,2.5e-05,-0.00190494691644,0.0022027631361,0.000545160989823,0.0,0.0,0.0,9.14783492397e-05,0.000159588211671,0.97402902337,0.226423116744,2.60308204915e-07,2.60308204915e-07,0.0001,-0.000116362848699,4.13115811101e-05,0.000789987666472,0.999999680336
252140000000,0.534247487777,0.675318330665,9.79751687134,2.5e-05,2.5e-05,2.5e-05,-0.000281887753709,0.00240271377489,-0.00133354184539,0.0,0.0,0.0,0.00136796570981,-0.00495475143919,-0.555850956018,2.5e-05,2.5e-05,2.5e-05,-0.00190400501826,0.00220255259434,0.000545366591045,0.0,0.0,0.0,0.000108989609868,0.000155646125574,0.97276022286,0.231813530058,2.60308204915e-07,2.60308204915e-07,0.0001,-0.000115866302569,4.25558041233e-05,0.000792890435523,0.999999678044
252160000000,0.513704493603,0.489411206974,9.7926385557,2.5e-05,2.5e-05,2.5e-05,-0.000279761982417,0.00240375611726,-0.00133240959315,0.0,0.0,0.0,-0.00260323240656,0.00299874971514,-0.403773543223,2.5e-05,2.5e-05,2.5e-05,-0.00190535818944,0.00220141742247,0.000545941792667,0.0,0.0,0.0,9.37679327801e-05,0.000158418159955,0.971817537203,0.235734258213,2.60308204915e-07,2.60308204915e-07,0.0001,-0.000115517783343,4.36075063262e-05,0.000791952218218,0.999999678783
252180000000,0.489467820585,0.299411298177,9.79640611406,2.5e-05,2.5e-05,2.5e-05,-0.000281833819166,0.00240493875642,-0.00133244076086,0.0,0.0,0.0,0.00743698804591,-0.00166810090259,-0.244629486871,2.5e-05,2.5e-05,2.5e-05,-0.00190517666563,0.00220308261783,0.000545447683823,0.0,0.0,0.0,9.2641585077e-05,0.000156067759461,0.971229527797,0.238145273719,2.60308204915e-07,2.60308204915e-07,0.0001,-0.000115402299825,4.41138766158e-05,0.000787928382036,0.999999681953
252200000000,0.351530897771,0.125975094875,9.80313640177,2.5e-05,2.5e-05,2.5e-05,-0.000279685293683,0.00240474943692,-0.00132767595089,0.0,0.0,0.0,-0.00503245954769,0.00571738724006,-0.0935543591271,2.5e-05,2.5e-05,2.5e-05,-0.00190467987551,0.00220334521041,0.000545205614021,0.0,0.0,0.0,9.04150291567e-05,0.000152581317003,0.97100375529,0.239064166608,2.60308204915e-07,2.60308204915e-07,0.0001,-0.000115258915512,4.44237690496e-05,0.00078356285861,0.999999685386
252220000000,0.561097892396,-0.025070030026,9.80164170138,2.5e-05,2.5e-05,2.5e-05,-0.000276580672814,0.00240430641577,-0.00132803585705,0.0,0.0,0.0,-0.0145717098306,-0.0112597588453,0.058798178786,2.5e-05,2.5e-05,2.5e-05,-0.00190546961379,0.00220357692853,0.000544748492586,0.0,0.0,0.0,0.000107940062668,0.000143375340169,0.971150538472,0.238467187299,2.60308204915e-07,2.60308204915e-07,0.0001,-0.000115218197414,4.44137990908e-05,0.000782978962168,0.999999685848
252240000000,0.4589683546,-0.205552793484,9.79646080108,2.5e-05,2.5e-05,2.5e-05,-0.000276186991971,0.00240661818391,-0.00132979923832,0.0,0.0,0.0,0.000472728286595,-0.00791524890167,0.227583463869,2.5e-05,2.5e-05,2.5e-05,-0.0019070730827,0.00220313722553,0.00054445123768,0.0,0.0,0.0,0.000124248623291,0.000134552546896,0.971664318926,0.236365009644,2.60308204915e-07,2.60308204915e-07,0.0001,-0.000115503064794,4.39887733042e-05,0.000783546722239,0.999999685389
252260000000,0.386211390708,-0.356741622828,9.80820394956,2.5e-05,2.5e-05,2.5e-05,-0.000280233605449,0.00240686722289,-0.00133079444393,0.0,0.0,0.0,0.000503487991073,-0.000420136037413,0.369577234833,2.5e-05,2.5e-05,2.5e-05,-0.00190636336018,0.00220426264143,0.000545457098911,0.0,0.0,0.0,0.000116453935568,0.000130054242363,0.972533643759,0.232762284918,2.60308204915e-07,2.60308204915e-07,0.0001,-0.00011593007819,4.29530919967e-05,0.000792134543897,0.999999678619
252280000000,1.06837982074,-0.556290643849,9.79857006126,2.5e-05,2.5e-05,2.5e-05,-0.000280285979353,0.00240503528661,-0.00132926394924,0.0,0.0,0.0,0.00583689743409,0.00506647992565,0.464722335218,2.5e-05,2.5e-05,2.5e-05,-0.00190748844867,0.0022043175786,0.000544738626765,0.0,0.0,0.0,0.00010095103594,0.000123456468917,0.973597913869,0.228269745428,2.60308204915e-07,2.60308204915e-07,0.0001,-0.00011623903128,4.18339070531e-05,0.000786145138088,0.999999683357
252300000000,1.31237081342,-0.425136493598,9.8039235144,2.5e-05,2.5e-05,2.5e-05,-0.000283047412097,0.00240488545269,-0.00132782391275,0.0,0.0,0.0,-0.00954391150684,-0.00349641468274,0.424499377017,2.5e-05,2.5e-05,2.5e-05,-0.00190640579349,0.00220361894276,0.000544978785105,0.0,0.0,0.0,9.12586930879e-05,0.000118660690185,0.974546458804,0.224185586565,2.60308204915e-07,2.60308204915e-07,0.0001,-0.00011664004294,4.07265383178e-05,0.000788109298881,0.99999968181
252320000000,1.38610054353,-0.377109409553,9.78286575729,2.5e-05,2.5e-05,2.5e-05,-0.000281124722867,0.0024031637572,-0.00133246585879,0.0,0.0,0.0,-0.000601188112183,0.00260745790699,0.36510713628,2.5e-05,2.5e-05,2.5e-05,-0.00190591211067,0.00220365945713,0.000544041721145,0.0,0.0,0.0,9.13987697331e-05,0.000111056293135,0.975373368384,0.220560131394,2.60308204915e-07,2.60308204915e-07,0.0001,-0.000116817042601,3.99086415479e-05,0.000789475742671,0.999999680745
252340000000,1.44234170238,-0.331083993185,9.80917614739,2.5e-05,2.5e-05,2.5e-05,-0.000278123181854,0.00240243411564,-0.00133094107361,0.0,0.0,0.0,0.00438619443132,0.00314599713942,0.327627978251,2.5e-05,2.5e-05,2.5e-05,-0.00190474301975,0.00220397724734,0.000544639222033,0.0,0.0,0.0,0.00010281964054,0.000102463354799,0.976081636708,0.217404271834,2.60308204915e-07,2.60308204915e-07,0.0001,-0.000116972336107,3.92765415938e-05,0.000792307913943,0.999999678511
252360000000,1.34024419211,-0.258126944432,9.80476636056,2.5e-05,2.5e-05,2.5e-05,-0.000278526426709,0.00240499677251,-0.00132675888768,0.0,0.0,0.0,-0.00338825872278,-0.00171646776508,0.27851857043,2.5e-05,2.5e-05,2.5e-05,-0.00190496586693,0.00220404279096,0.000544830780229,0.0,0.0,0.0,9.32877078762e-05,9.92816243874e-05,0.976673790946,0.214728404084,2.60308204915e-07,2.60308204915e-07,0.0001,-0.000117312898682,3.86699028922e-05,0.000793988700965,0.999999677162
252380000000,1.28534955284,-0.191945660659,9.80546833211,2.5e-05,2.5e-05,2.5e-05,-0.000281815056898,0.00240526746368,-0.00132503473154,0.0,0.0,0.0,-0.00137889195367,0.0134758488182,0.227631376615,2.5e-05,2.5e-05,2.5e-05,-0.00190533284266,0.00220358887359,0.000544493464505,0.0,0.0,0.0,8.26771694168e-05,9.75358054106e-05,0.977149959448,0.212551030114,2.60308204915e-07,2.60308204915e-07,0.0001,-0.000117566434761,3.79986085084e-05,0.000796333175096,0.999999675294
252400000000,1.39298772431,-0.165119753828,9.80144686035,2.5e-05,2.5e-05,2.5e-05,-0.00027885292813,0.00240512569453,-0.00132380988557,0.0,0.0,0.0,-0.0145017226014,-0.00186478249949,0.162287024243,2.5e-05,2.5e-05,2.5e-05,-0.00190608760115,0.00220452037185,0.000543438226914,0.0,0.0,0.0,7.23297207399e-05,9.63133377372e-05,0.977507666869,0.210899849939,2.60308204915e-07,2.60308204915e-07,0.0001,-0.000117625242453,3.77344813961e-05,0.000797210006992,0.999999674598
252420000000,1.53941431074,-0.114000995316,9.80427673344,2.5e-05,2.5e-05,2.5e-05,-0.00028384653965,0.00240670586048,-0.00132297462779,0.0,0.0,0.0,-0.00276957512869,-0.00408400969656,0.113507173296,2.5e-05,2.5e-05,2.5e-05,-0.00190353789457,0.00220412301985,0.000543089893201,0.0,0.0,0.0,7.8632454963e-05,9.24892029733e-05,0.977744613352,0.209798608967,2.60308204915e-07,2.60308204915e-07,0.0001,-0.000117887624812,3.72704430093e-05,0.000792349129116,0.999999678448
252440000000,1.34360605341,-0.0421841965011,9.80183425638,2.5e-05,2.5e-05,2.5e-05,-0.000284956362551,0.00240396583997,-0.00132216091822,0.0,0.0,0.0,0.00743514862279,-0.00119984413014,0.0660906733494,2.5e-05,2.5e-05,2.5e-05,-0.00190342107533,0.00220195290676,0.000543681842014,0.0,0.0,0.0,7.66092566834e-05,9.26179807072e-05,0.977865742325,0.209233304091,2.60308204915e-07,2.60308204915e-07,0.0001,-0.000117826366777,3.7025093079e-05,0.000793934608452,0.999999677207
252460000000,1.58925589822,-0.0213492624896,9.79948965308,2.5e-05,2.5e-05,2.5e-05,-0.000285295523978,0.00240611961716,-0.00132086822774,0.0,0.0,0.0,0.00457125070606,0.00260816294205,-7.57622582834e-05,2.5e-05,2.5e-05,2.5e-05,-0.00190306997535,0.00219910501478,0.000543491636561,0.0,0.0,0.0,9.09373859254e-05,8.94604111128e-05,0.977868174423,0.209221932831,2.60308204915e-07,2.60308204915e-07,0.0001,-0.000117933686948,3.70535081147e-05,0.00079485714827,0.99999967646
252480000000,1.32930331729,0.0420749174377,9.79805675104,2.5e-05,2.5e-05,2.5e-05,-0.000285004965414,0.00240641763085,-0.00132176392906,0.0,0.0,0.0,-0.00364928065781,0.00509538256886,-0.0615940035503,2.5e-05,2.5e-05,2.5e-05,-0.00190313848253,0.00219955908011,0.000542829371946,0.0,0.0,0.0,8.7232014699e-05,9.12631803674e-05,0.977754335205,0.209753293298,2.60308204915e-07,2.60308204915e-07,0.0001,-0.000117901160233,3.72019413349e-05,0.000802967319631,0.999999669979
252500000000,1.63628328581,0.0831525526841,9.79425409088,2.5e-05,2.5e-05,2.5e-05,-0.000283427854968,0.00241137251432,-0.00132326704066,0.0,0.0,0.0,-0.00776146871913,0.0002901416256,-0.110796855686,2.5e-05,2.5e-05,2.5e-05,-0.00190323837144,0.00219947880227,0.000542107485156,0.0,0.0,0.0,0.000102944651767,8.96226661094e-05,0.977518533493,0.210849467746,2.60308204915e-07,2.60308204915e-07,0.0001,-0.000118013575656,3.76465165754e-05,0.000808022507705,0.999999665878
252520000000,1.3461751404,0.128076682173,9.79926036159,2.5e-05,2.5e-05,2.5e-05,-0.000277848147905,0.00241130865773,-0.00132742103734,0.0,0.0,0.0,-2.98916254788e-05,0.00722011946598,-0.170455659389,2.5e-05,2.5e-05,2.5e-05,-0.00190325450041,0.0022003297104,0.00054048114939,0.0,0.0,0.0,0.000100499559192,9.3742439104e-05,0.977160590848,0.212502143062,2.60308204915e-07,2.60308204915e-07,0.0001,-0.000117764718146,3.83030318618e-05,0.000810683603494,0.999999663728
252540000000,0.406917508247,0.0943395205085,9.80745570504,2.5e-05,2.5e-05,2.5e-05,-0.000278275149956,0.00241151626244,-0.00132552052458,0.0,0.0,0.0,-0.00696748632949,0.0101440329751,-0.268706638799,2.5e-05,2.5e-05,2.5e-05,-0.0019035181806,0.00220080574283,0.000539125025317,0.0,0.0,0.0,8.39650262266e-05,9.47232344377e-05,0.976586996714,0.215122806382,2.60308204915e-07,2.60308204915e-07,0.0001,-0.000117576715605,3.89175523878e-05,0.000816775082051,0.99999965877
252560000000,-0.764641744745,0.328543714738,9.7868966019,2.5e-05,2.5e-05,2.5e-05,-0.000278704921618,0.00241589688097,-0.00132615052471,0.0,0.0,0.0,-0.00867850675667,4.37985480073e-05,-0.465017808675,2.5e-05,2.5e-05,2.5e-05,-0.00190399718118,0.00220152967936,0.000540281787001,0.0,0.0,0.0,9.89237467518e-05,8.77148185625e-05,0.975575142209,0.219665938242,2.60308204915e-07,2.60308204915e-07,0.0001,-0.000117419353813,4.00880013107e-05,0.000814847849092,0.999999660314
252580000000,-0.63744398792,0.426467632715,9.80123877294,2.5e-05,2.5e-05,2.5e-05,-0.000280141126559,0.0024209096303,-0.00133195274686,0.0,0.0,0.0,-0.00134934036933,0.000880546828141,-0.685785479939,2.5e-05,2.5e-05,2.5e-05,-0.0019025041652,0.00220064069033,0.000539000909228,0.0,0.0,0.0,0.000126326481077,8.19281945454e-05,0.974057762611,0.22629947509,2.60308204915e-07,2.60308204915e-07,0.0001,-0.000117122998392,4.17333629473e-05,0.000818715197242,0.999999657123
252600000000,-0.607005556089,0.543132654068,9.80965186376,2.5e-05,2.5e-05,2.5e-05,-0.000281427533562,0.00242088978397,-0.00133301990981,0.0,0.0,0.0,-0.0130346690594,-0.00387783213179,-0.887384355905,2.5e-05,2.5e-05,2.5e-05,-0.00190082933991,0.00220261177815,0.000539468509284,0.0,0.0,0.0,0.000138930424841,7.76240866503e-05,0.972005096072,0.234959715446,2.60308204915e-07,2.60308204915e-07,0.0001,-0.000116389918877,4.37541590071e-05,0.000818865131824,0.999999656999
252620000000,-1.78481759466,0.800854814618,9.79190091678,2.5e-05,2.5e-05,2.5e-05,-0.000280742347521,0.00242340144067,-0.00133144519306,0.0,0.0,0.0,0.00470639898393,0.00783893894993,-0.966990013038,2.5e-05,2.5e-05,2.5e-05,-0.00190076299121,0.00220113469606,0.000540496788487,0.0,0.0,0.0,4.76491304885e-05,0.000113554353831,0.969678982902,0.244382190335,2.60308204915e-07,2.60308204915e-07,0.0001,-0.000115623192225,4.60849840932e-05,0.00081281921559,0.999999661916
252640000000,-2.49652627462,0.627178345863,9.78234611158,2.5e-05,2.5e-05,2.5e-05,-0.000280623709812,0.00242298971443,-0.00133114194795,0.0,0.0,0.0,-0.012180105743,0.00759348948616,-0.884115839443,2.5e-05,2.5e-05,2.5e-05,-0.00190128962776,0.00220039491885,0.000540624059592,0.0,0.0,0.0,6.08144129965e-05,0.000120532413047,0.967496315657,0.252885074616,2.60308204915e-07,2.60308204915e-07,0.0001,-0.000114775550566,4.81046767813e-05,0.000813236278715,0.99999966158
252660000000,-2.45301953656,0.654240448449,9.79853544987,2.5e-05,2.5e-05,2.5e-05,-0.000280618967193,0.00242371845872,-0.00133381869477,0.0,0.0,0.0,0.00129155061823,-0.00313690696519,-0.793927844637,2.5e-05,2.5e-05,2.5e-05,-0.0019016909561,0.00220072102391,0.000541695387969,0.0,0.0,0.0,7.38316082862e-05,0.000125944672797,0.965449844979,0.260588901369,2.60308204915e-07,2.60308204915e-07,0.0001,-0.000114026410213,4.99490650871e-05,0.000813887650506,0.999999661045
252680000000,-2.40860823476,0.610693381634,9.80061166754,2.5e-05,2.5e-05,2.5e-05,-0.000274738819439,0.00242223055602,-0.00133831571947,0.0,0.0,0.0,-0.00144002093637,0.00208871794231,-0.722689544109,2.5e-05,2.5e-05,2.5e-05,-0.00190181929702,0.00220059310058,0.000542756318945,0.0,0.0,0.0,7.22991770425e-05,0.000128823152807,0.963536791086,0.267575840465,2.60308204915e-07,2.60308204915e-07,0.0001,-0.000113071627981,5.18129246535e-05,0.000810281933889,0.999999663987
252700000000,-2.37217580971,0.574662744025,9.80779722633,2.5e-05,2.5e-05,2.5e-05,-0.000277372636105,0.00242038512141,-0.00133660339435,0.0,0.0,0.0,-0.00871133721279,0.00128068929462,-0.656587017898,2.5e-05,2.5e-05,2.5e-05,-0.00190250547456,0.00219947937097,0.000542899322572,0.0,0.0,0.0,0.000121506342214,0.000109348209873,0.961770533343,0.273856558205,2.60308204915e-07,2.60308204915e-07,0.0001,-0.000112372000139,5.31268194643e-05,0.000820016242428,0.999999656062
252720000000,-0.770111073619,0.631113306996,9.7849788098,2.5e-05,2.5e-05,2.5e-05,-0.000276521761628,0.00242116579125,-0.00133459550042,0.0,0.0,0.0,-0.00544831453192,0.00471102719727,-0.557479325133,2.5e-05,2.5e-05,2.5e-05,-0.00190138556902,0.0021978367227,0.000543230305543,0.0,0.0,0.0,9.0217861493e-05,0.000115874199596,0.960217846517,0.279251975221,2.60308204915e-07,2.60308204915e-07,0.0001,-0.000111780723822,5.44395593311e-05,0.000822027404046,0.999999654406
252740000000,0.264426073401,0.423122882974,9.7873203323,2.5e-05,2.5e-05,2.5e-05,-0.000285055789277,0.00242051152415,-0.001335796526,0.0,0.0,0.0,-0.000841620908438,0.00444539759391,-0.393869200035,2.5e-05,2.5e-05,2.5e-05,-0.00190039120363,0.00219791311535,0.000542187831395,0.0,0.0,0.0,0.00011672744684,0.000116606553616,0.959094480477,0.283086118163,2.60308204915e-07,2.60308204915e-07,0.0001,-0.000111550161109,5.49505587689e-05,0.000818617644231,0.999999657201
252760000000,0.287825828693,0.250782002834,9.79935744466,2.5e-05,2.5e-05,2.5e-05,-0.000285162767398,0.00242012831978,-0.00133363040284,0.0,0.0,0.0,0.000418620088795,0.00345589754523,-0.236523023361,2.5e-05,2.5e-05,2.5e-05,-0.00189995017931,0.00219743114329,0.000540851564391,0.0,0.0,0.0,0.000104573430097,0.000123990540337,0.958429554332,0.285329218753,2.60308204915e-07,2.60308204915e-07,0.0001,-0.000111279806303,5.54555704184e-05,0.000821020735958,0.999999655233
252780000000,0.340181956168,0.090768337823,9.78870968932,2.5e-05,2.5e-05,2.5e-05,-0.000286253962384,0.00241975733179,-0.00134106643832,0.0,0.0,0.0,-0.00265674327083,0.00683648383237,-0.05876346071,2.5e-05,2.5e-05,2.5e-05,-0.00189965165833,0.00219521410828,0.000540389232099,0.0,0.0,0.0,0.000101090599835,0.000128830435284,0.958245089445,0.285948110221,2.60308204915e-07,2.60308204915e-07,0.0001,-0.000111223749411,5.55417683871e-05,0.000817885689775,0.999999657804
252800000000,0.383729934394,-0.0775722533009,9.78947126832,2.5e-05,2.5e-05,2.5e-05,-0.000284919484419,0.00242044919524,-0.00134229257782,0.0,0.0,0.0,-0.00382988161265,-0.00092547110525,0.107829416822,2.5e-05,2.5e-05,2.5e-05,-0.00189998383606,0.00219432645768,0.000540296713927,0.0,0.0,0.0,0.000109877539118,0.000128030550887,0.958546585821,0.284935807412,2.60308204915e-07,2.60308204915e-07,0.0001,-0.000111332481581,5.53845187254e-05,0.000821415355475,0.999999654907
252820000000,0.344688983854,-0.218837185358,9.7983188114,2.5e-05,2.5e-05,2.5e-05,-0.00028637333978,0.00241834607816,-0.0013415914789,0.0,0.0,0.0,0.00152789340611,0.00530564730104,0.273320125123,2.5e-05,2.5e-05,2.5e-05,-0.00189818262651,0.00219361989446,0.000538732380457,0.0,0.0,0.0,0.00012024888865,0.000123598256849,0.959318630918,0.282325582684,2.60308204915e-07,2.60308204915e-07,0.0001,-0.000111581235666,5.46586566579e-05,0.000824403699734,0.99999965246
252840000000,0.351059426261,-0.378479566675,9.80005880249,2.5e-05,2.5e-05,2.5e-05,-0.000282364035125,0.00241584764663,-0.00134216015627,0.0,0.0,0.0,-0.0122913412596,0.00672125120448,0.439084113919,2.5e-05,2.5e-05,2.5e-05,-0.00189919613876,0.0021941313298,0.00053974886984,0.0,0.0,0.0,0.000130968046264,0.000119110350814,0.960546552798,0.27811919849,2.60308204915e-07,2.60308204915e-07,0.0001,-0.000111837935785,5.37842570084e-05,0.000821433493011,0.999999654923
252860000000,0.843152401321,-0.592716717158,9.80340224072,2.5e-05,2.5e-05,2.5e-05,-0.000278721188939,0.00241689031091,-0.00134565299024,0.0,0.0,0.0,-0.00282290676863,0.00488844005772,0.550976562275,2.5e-05,2.5e-05,2.5e-05,-0.00190124677601,0.00219561566792,0.000539915799499,0.0,0.0,0.0,0.000118576533444,0.000114212182027,0.962069834665,0.27280323701,2.60308204915e-07,2.60308204915e-07,0.0001,-0.00011237353456,5.27276758015e-05,0.000814864809436,0.999999660294
252880000000,1.34683262277,-0.437682016763,9.8034420888,2.5e-05,2.5e-05,2.5e-05,-0.000278198902947,0.00242145917968,-0.00134662221249,0.0,0.0,0.0,0.00495854186765,-0.0030432663695,0.539958164876,2.5e-05,2.5e-05,2.5e-05,-0.00190120632714,0.00219480494499,0.000541083817282,0.0,0.0,0.0,0.000112872028637,0.000112912882061,0.963535717139,0.267579700852,2.60308204915e-07,2.60308204915e-07,0.0001,-0.000113124638822,5.16480673667e-05,0.000818141979082,0.999999657589
252895000000,1.35475644895,-0.469919053761,9.79618972332,2.5e-05,2.5e-05,2.5e-05,-0.000276869156373,0.00241684455003,-0.00134987701667,0.0,0.0,0.0,0.00353172216573,-0.000115350001584,0.510332516443,2.5e-05,2.5e-05,2.5e-05,-0.00190121618347,0.00219508590793,0.000540844601617,0.0,0.0,0.0,0.000118301850668,0.000105056006749,0.964917300081,0.262553954402,2.60308204915e-07,2.60308204915e-07,0.0001,-0.000113418609011,5.04047691274e-05,0.000811162198924,0.999999663306
252920000000,1.36458485185,-0.42168110251,9.80201900944,2.5e-05,2.5e-05,2.5e-05,-0.000278656820152,0.00241568143749,-0.00134832613355,0.0,0.0,0.0,-0.00903605106705,0.00209629244133,0.484423278399,2.5e-05,2.5e-05,2.5e-05,-0.00190042320168,0.0021952155419,0.000539876214366,0.0,0.0,0.0,0.000128196110904,9.69498211338e-05,0.96618265458,0.257858589455,2.60308204915e-07,2.60308204915e-07,0.0001,-0.000113896098978,4.91915812902e-05,0.000809750409259,0.999999664456
252940000000,1.39560682269,-0.369451975707,9.79642597762,2.5e-05,2.5e-05,2.5e-05,-0.000274536450612,0.00241433239177,-0.00134887295885,0.0,0.0,0.0,6.77303163548e-05,-0.000901028363301,0.445223994048,2.5e-05,2.5e-05,2.5e-05,-0.00190126381838,0.00219636581704,0.000540059800381,0.0,0.0,0.0,0.000116103894361,9.47538012485e-05,0.967327624431,0.253529573333,2.60308204915e-07,2.60308204915e-07,0.0001,-0.000114169048055,4.83169315927e-05,0.00080705078902,0.99999966665
252960000000,1.2893903266,-0.310864790589,9.79040661829,2.5e-05,2.5e-05,2.5e-05,-0.00027471611914,0.00241768949652,-0.0013494642072,0.0,0.0,0.0,7.17296150798e-05,-0.00442123760676,0.409854785451,2.5e-05,2.5e-05,2.5e-05,-0.00190101027587,0.00219803015843,0.000542130810457,0.0,0.0,0.0,0.000108687406904,9.37615390009e-05,0.968354067134,0.249580408005,2.60308204915e-07,2.60308204915e-07,0.0001,-0.000114714042311,4.74571342421e-05,0.000803643341068,0.999999669373
252980000000,1.46792410721,-0.28666027503,9.8007328124,2.5e-05,2.5e-05,2.5e-05,-0.000279422976614,0.00241553145448,-0.00135055169321,0.0,0.0,0.0,-0.00368909386535,0.00766490446994,0.37204538686,2.5e-05,2.5e-05,2.5e-05,-0.00190011017856,0.00219832344525,0.000542502984749,0.0,0.0,0.0,0.000108034705306,9.0049496692e-05,0.969263989762,0.246022963097,2.60308204915e-07,2.60308204915e-07,0.0001,-0.000115076984423,4.63494640184e-05,0.000801584363625,0.999999671036
253000000000,1.40152617762,-0.24130838474,9.80029519953,2.5e-05,2.5e-05,2.5e-05,-0.000276900798657,0.00241631905537,-0.0013520950548,0.0,0.0,0.0,-0.00982445463594,0.00552007481545,0.314717406613,2.5e-05,2.5e-05,2.5e-05,-0.00189970340466,0.00220012761848,0.000542258155043,0.0,0.0,0.0,0.000106496233951,8.69651974608e-05,0.970056218042,0.242880453998,2.60308204915e-07,2.60308204915e-07,0.0001,-0.000115349633543,4.57337996021e-05,0.000793494478865,0.999999677485
253020000000,1.37531273111,-0.186189619998,9.8016789778,2.5e-05,2.5e-05,2.5e-05,-0.000278721552098,0.00241658402755,-0.0013504991446,0.0,0.0,0.0,-0.00501017925172,0.000231863352883,0.274158389385,2.5e-05,2.5e-05,2.5e-05,-0.00190003449408,0.0021999111491,0.000541681288102,0.0,0.0,0.0,9.52078841069e-05,8.83869455829e-05,0.970731334041,0.240167983367,2.60308204915e-07,2.60308204915e-07,0.0001,-0.000115659428245,4.50107714241e-05,0.000791876874047,0.999999678764
253040000000,1.49978437489,-0.175335537095,9.80624934972,2.5e-05,2.5e-05,2.5e-05,-0.000284085814969,0.00241551203166,-0.00134831411502,0.0,0.0,0.0,-0.00126392344178,0.0059025282776,0.238281847947,2.5e-05,2.5e-05,2.5e-05,-0.0019006270847,0.00219958093979,0.00054070638158,0.0,0.0,0.0,9.43972029917e-05,8.67634408026e-05,0.971291701383,0.237891602178,2.60308204915e-07,2.60308204915e-07,0.0001,-0.000115946622784,4.4201348922e-05,0.000803976239804,0.999999669112
253060000000,1.44827938062,-0.121189846711,9.79528848681,2.5e-05,2.5e-05,2.5e-05,-0.000286179033163,0.002415285239,-0.00134745749226,0.0,0.0,0.0,0.00479724652858,0.00931946702006,0.185370859421,2.5e-05,2.5e-05,2.5e-05,-0.00190158260628,0.00219847675598,0.000540807996874,0.0,0.0,0.0,9.60309625155e-05,8.60932325193e-05,0.971733463939,0.23608061849,2.60308204915e-07,2.60308204915e-07,0.0001,-0.00011614948625,4.36681527971e-05,0.000798200977791,0.999999673739
253080000000,1.45118268116,-0.0861906651105,9.80553064033,2.5e-05,2.5e-05,2.5e-05,-0.000287033353803,0.00241556545984,-0.00134979678965,0.0,0.0,0.0,0.00424947222093,0.00145175673979,0.143929074344,2.5e-05,2.5e-05,2.5e-05,-0.0019021979844,0.00219938175498,0.000541660991205,0.0,0.0,0.0,0.000103144664753,8.51374942559e-05,0.972063579047,0.234717661038,2.60308204915e-07,2.60308204915e-07,0.0001,-0.000116303705055,4.3311042187e-05,0.000799145807861,0.999999672982
253100000000,1.45113405809,-0.0587829819988,9.80320937532,2.5e-05,2.5e-05,2.5e-05,-0.000287652136304,0.00241457253406,-0.00135125210084,0.0,0.0,0.0,0.0082999731908,0.00133821257099,0.0961708463532,2.5e-05,2.5e-05,2.5e-05,-0.00190217960096,0.00219775086032,0.000542770281238,0.0,0.0,0.0,0.000109317653923,8.45501397895e-05,0.972280000361,0.233819549649,2.60308204915e-07,2.60308204915e-07,0.0001,-0.000116352586562,4.30455227775e-05,0.000797291675087,0.999999674468
253120000000,1.48759438857,-0.0217224381925,9.80221551305,2.5e-05,2.5e-05,2.5e-05,-0.000287228924434,0.00241657415015,-0.00134858143281,0.0,0.0,0.0,-5.97974782999e-05,-0.0023156790297,0.0494466216728,2.5e-05,2.5e-05,2.5e-05,-0.00190261411231,0.00219963884666,0.000543698685066,0.0,0.0,0.0,0.000109271523435,8.65920830291e-05,0.972383464506,0.23338889973,2.60308204915e-07,2.60308204915e-07,0.0001,-0.000116472070228,4.30081769082e-05,0.000797707859163,0.999999674123
253140000000,1.43927753938,0.015249514225,9.79744237673,2.5e-05,2.5e-05,2.5e-05,-0.000288082095232,0.00241720004967,-0.00134792390057,0.0,0.0,0.0,-0.00490730319613,-0.00266124602694,-0.00157373481753,2.5e-05,2.5e-05,2.5e-05,-0.00190227819162,0.00219942726532,0.000543432794169,0.0,0.0,0.0,0.000115649560765,8.81316922519e-05,0.972370415533,0.233443256175,2.60308204915e-07,2.60308204915e-07,0.0001,-0.000116515614617,4.29975220483e-05,0.000794902411012,0.999999676353
253160000000,0.941064979989,0.0232107465312,9.78929111231,2.5e-05,2.5e-05,2.5e-05,-0.000288905460358,0.00241288219903,-0.00134454827475,0.0,0.0,0.0,-0.0010568362623,-0.00260843971886,-0.0823022704941,2.5e-05,2.5e-05,2.5e-05,-0.00190223612903,0.0022009316986,0.000544550894882,0.0,0.0,0.0,0.000111623413999,8.8954157099e-05,0.972204234052,0.234134377908,2.60308204915e-07,2.60308204915e-07,0.0001,-0.000116277708923,4.30248834782e-05,0.000795973511565,0.999999675527
253180000000,-0.271677106958,0.0080443780565,9.82578127471,2.5e-05,2.5e-05,2.5e-05,-0.000291373664788,0.00241873766857,-0.00134470409778,0.0,0.0,0.0,-0.0117052773993,-0.00502060939203,-0.20254600566,2.5e-05,2.5e-05,2.5e-05,-0.00190147631882,0.00220130937746,0.000544681598938,0.0,0.0,0.0,0.000113190192467,8.23490374254e-05,0.971696818328,0.236231398542,2.60308204915e-07,2.60308204915e-07,0.0001,-0.000116413151798,4.35519491317e-05,0.000797780860896,0.999999674048
253200000000,-0.631819963844,0.237597214629,9.79456190875,2.5e-05,2.5e-05,2.5e-05,-0.000290270083054,0.00241739254348,-0.00134512934982,0.0,0.0,0.0,-0.00307091664072,-0.000239888482149,-0.421914192327,2.5e-05,2.5e-05,2.5e-05,-0.00190366383724,0.00220099489186,0.000543011747474,0.0,0.0,0.0,0.000131895435549,7.64638023437e-05,0.970680851324,0.240371923547,2.60308204915e-07,2.60308204915e-07,0.0001,-0.00011594918724,4.45631473213e-05,0.000799527113228,0.999999672663
253220000000,0.158007216144,0.454644583434,9.77897869067,2.5e-05,2.5e-05,2.5e-05,-0.000291354367342,0.00241410984619,-0.00134415585208,0.0,0.0,0.0,-0.0143947539267,0.00258320364401,-0.655187837627,2.5e-05,2.5e-05,2.5e-05,-0.00190463710048,0.00220190344363,0.000541875065453,0.0,0.0,0.0,0.000108542656959,8.90412054359e-05,0.969097239768,0.246678982007,2.60308204915e-07,2.60308204915e-07,0.0001,-0.000115242201871,4.59350933565e-05,0.000792795858106,0.999999678042
253240000000,1.30910912523,0.259916271524,9.8030343583,2.5e-05,2.5e-05,2.5e-05,-0.000290504387388,0.00241613684745,-0.00134732565604,0.0,0.0,0.0,-0.00531861649932,0.00345403039946,-0.748008123532,2.5e-05,2.5e-05,2.5e-05,-0.00190494029528,0.00220198200177,0.000542946943534,0.0,0.0,0.0,0.000123505264232,8.55522379831e-05,0.967218960884,0.253943810979,2.60308204915e-07,2.60308204915e-07,0.0001,-0.00011460766755,4.77498879231e-05,0.000793569185727,0.999999677416
253260000000,1.0864473186,0.410135613565,9.79063929465,2.5e-05,2.5e-05,2.5e-05,-0.000290492016672,0.00241684124806,-0.00134022686221,0.0,0.0,0.0,-0.00581761650584,0.00287790477383,-0.792595892902,2.5e-05,2.5e-05,2.5e-05,-0.00190566824324,0.00220244685235,0.00054139979148,0.0,0.0,0.0,0.000101645873253,9.6495034664e-05,0.965183373908,0.261574148357,2.60308204915e-07,2.60308204915e-07,0.0001,-0.00011387252318,4.95696838241e-05,0.000789731780274,0.99999968045
253280000000,1.7970302287,0.345720893808,9.81041151529,2.5e-05,2.5e-05,2.5e-05,-0.000291221963821,0.00241392528667,-0.0013378314835,0.0,0.0,0.0,-0.00145859361113,0.0109159908037,-0.830500866929,2.5e-05,2.5e-05,2.5e-05,-0.00190547417652,0.00220082329324,0.000542593378683,0.0,0.0,0.0,9.22475856681e-05,9.95580690235e-05,0.962989309178,0.269539555515,2.60308204915e-07,2.60308204915e-07,0.0001,-0.000112931208456,5.13338856177e-05,0.000787540072273,0.999999682196
253300000000,1.32434870204,0.365759044018,9.79424858748,2.5e-05,2.5e-05,2.5e-05,-0.000291396062714,0.0024143893971,-0.00134081295392,0.0,0.0,0.0,-0.00760106528234,-0.00158199498391,-0.855547997478,2.5e-05,2.5e-05,2.5e-05,-0.00190651572574,0.00219959218017,0.000542292936255,0.0,0.0,0.0,8.18858843288e-05,0.000102323507489,0.960661593295,0.277721597995,2.60308204915e-07,2.60308204915e-07,0.0001,-0.000112066979419,5.32519579711e-05,0.000791276467322,0.999999679243
253320000000,1.60482803863,0.31695137371,9.80439422834,2.5e-05,2.5e-05,2.5e-05,-0.000289179282091,0.00241085767641,-0.00133897312437,0.0,0.0,0.0,-0.00407978529663,0.00159650804537,-0.833056281287,2.5e-05,2.5e-05,2.5e-05,-0.00190594163194,0.0022004954252,0.000541010875755,0.0,0.0,0.0,0.000113396726411,9.94617870211e-05,0.958315025606,0.285713648514,2.60308204915e-07,2.60308204915e-07,0.0001,-0.000110950696318,5.51101082734e-05,0.000782285198532,0.999999686341
